ACCELEROMETER X (m/s²),ACCELEROMETER Y (m/s²),ACCELEROMETER Z (m/s²),GRAVITY X (m/s²),GRAVITY Y (m/s²),GRAVITY Z (m/s²),LINEAR ACCELERATION X (m/s²),LINEAR ACCELERATION Y (m/s²),LINEAR ACCELERATION Z (m/s²),GYROSCOPE X (rad/s),GYROSCOPE Y (rad/s),GYROSCOPE Z (rad/s),MAGNETIC FIELD X (μT),MAGNETIC FIELD Y (μT),MAGNETIC FIELD Z (μT),ORIENTATION Z (azimuth °),ORIENTATION X (pitch °),ORIENTATION Y (roll °),Time since start in ms ,YYYY-MO-DD HH-MI-SS_SSS
-0.1769,1.195,-1.1673,0.548,-9.5485,2.1672,-1.8274,2.4104,-2.1641,0.4541,-1.6807,2.731,3.2,47.61,21.42,4.07,76.82,-14.19,58826,2016-03-24 21:24:00:059
4.0737,-10.8997,-3.2379,-0.7586,-9.5359,2.1588,2.0279,7.2075,-4.7821,-1.8932,-4.7948,-1.6298,15.75,44.98,18.59,316.79,76.51,19.36,58926,2016-03-24 21:24:00:159
-0.9962,-12.3481,2.5717,0.012,-9.6704,1.6289,-2.2341,-7.7279,2.5143,-1.8932,-4.7948,-1.6298,15.75,44.98,18.59,316.79,76.51,19.36,59026,2016-03-24 21:24:00:259
-0.6057,-12.1179,0.8974,0.0345,-9.7423,1.121,-0.8901,-3.7694,-0.0041,-0.5666,2.0426,-0.3825,16.7,45.43,16.18,324.11,81.33,-1.31,59125,2016-03-24 21:24:00:358
8.8939,-0.3255,-9.1564,-0.0587,-9.7107,1.367,0.4805,1.4228,-0.0937,-0.4811,2.219,-0.1602,16.9,44.96,19.13,323.84,81.98,2.46,59226,2016-03-24 21:24:00:459
3.7185,-5.1078,2.7015,2.3784,-9.3601,1.7036,3.6297,5.8832,-3.6685,0.0188,1.7481,-2.1959,5.54,46.91,20.9,24.1,72.64,-54.39,59325,2016-03-24 21:24:00:558
-2.3204,-16.9278,1.4677,3.6571,-8.9955,1.3701,-3.3382,-3.2587,1.334,-0.6729,0.1949,-3.7181,-3.62,47.69,22.37,40.77,72.64,-54.39,59426,2016-03-24 21:24:00:659
-2.3365,-10.0936,-1.6417,2.427,-9.3688,1.583,-4.1556,-1.6683,-1.6604,0.8438,-0.9777,1.335,-13.91,45.59,25.86,64.44,68.84,-66.99,59526,2016-03-24 21:24:00:759
-0.4936,-3.8936,-0.3558,1.3858,-9.5805,1.57,-3.2359,-1.1156,-2.8555,0.5465,-2.3202,1.8507,-7.66,46.66,24.32,44.27,77.67,-41.43,59626,2016-03-24 21:24:00:859
2.4778,-5.2808,-2.0406,-0.5712,-9.5166,2.2975,0.5228,6.8623,-2.6171,0.8434,-0.3439,1.7827,10.24,46.6,20.68,332.83,76.03,13.96,59726,2016-03-24 21:24:00:959
0.7818,-19.4222,1.3061,0.1888,-9.582,2.0784,2.1145,-8.0081,-1.4992,-0.1503,-2.1635,-0.0293,15,46.3,18.16,335.07,77.71,-5.19,59827,2016-03-24 21:24:01:060
-0.9196,-12.1508,1.604,1.0594,-9.6753,1.1985,-1.4571,-2.6363,0.2545,-0.7553,1.0453,-0.3801,13.83,46.53,14.45,349.05,79.02,-29.32,59927,2016-03-24 21:24:01:160
-0.039,-3.4728,0.3668,1.172,-9.7095,0.7229,-2.0901,-1.4081,0.4095,-0.9705,1.6202,-0.4197,12.67,47.12,17.89,17.52,81.93,-58.33,60025,2016-03-24 21:24:01:258
5.5244,0.1232,-7.0438,1.5525,-9.5752,1.4406,2.7266,8.2644,-3.2325,0.4946,3.5102,-0.7808,5.67,45.94,24.67,33.4,81.8,-54.73,60126,2016-03-24 21:24:01:359
-3.7393,-19.4222,4.2914,3.1159,-9.2315,1.1142,0.9364,5.7564,-4.9559,-0.3402,0.951,-2.3519,-1.91,46.81,24.18,47.01,70.28,-70.32,60226,2016-03-24 21:24:01:459
0.3576,-8.0872,-0.3043,2.6405,-9.4223,0.6471,-1.7452,-7.0732,-0.0171,0.7066,-1.9058,1.4567,-9.97,43.28,27.63,73.09,73.91,-76.23,60326,2016-03-24 21:24:01:559
-1.5015,-1.3399,-0.8623,1.7031,-9.5374,1.5192,-2.8466,3.3252,-1.755,1.3937,-2.6348,1.2306,3.39,47.3,21.57,27.79,76.54,-48.27,60426,2016-03-24 21:24:01:659
0.2662,0.2463,0.4067,1.0521,-9.5212,2.1002,-2.8665,7.6684,-3.9246,1.1952,-2.0761,1.4492,10.17,47.57,16.48,356.58,76.14,-26.61,60526,2016-03-24 21:24:01:759
2.524,-17.2816,-3.0669,0.5556,-9.4813,2.4428,0.2423,-7.7019,-2.0325,-0.113,2.5571,-0.3788,18.48,45.64,9.93,328.52,75.2,-12.81,60625,2016-03-24 21:24:01:858
0.2178,-11.2396,-1.0951,0.6946,-9.5738,2.0077,0.2983,-1.3499,-3.1123,-0.9618,2.6318,-0.8504,18.09,46.38,11.43,329.81,75.2,-12.81,60726,2016-03-24 21:24:01:959
2.7174,-0.7166,-2.88,1.9232,-9.4893,1.5575,3.106,6.465,-3.5917,-0.4489,2.4062,-1.8816,9.72,45.04,22.44,18.51,75.38,-51,60826,2016-03-24 21:24:02:059
-2.0287,-6.7103,1.7415,3.5996,-9.0226,1.3439,-1.3564,4.7612,-3.9272,-1.0351,1.26,-3.0247,0.58,46.43,25.5,34.77,75.38,-51,60926,2016-03-24 21:24:02:159
-0.789,-11.7126,-2.8384,3.8888,-8.9315,1.1297,-7.1446,-11.6681,1.6734,0.7594,-1.2142,1.0887,-13.35,42.3,28.99,65.54,62.26,-76.84,61026,2016-03-24 21:24:02:259
-2.4787,-9.034,0.1956,2.9807,-9.2662,1.193,-3.8309,-3.4343,-2.6254,0.8831,-2.6348,1.7982,-10.59,42.48,28.54,65.27,70.89,-68.19,61125,2016-03-24 21:24:02:358
0.5631,3.0788,-19.0334,0.7791,-9.4381,2.5466,-0.6785,4.8688,-0.977,1.3573,1.0423,1.7585,9.44,46.69,20.49,17.01,74.92,-50.1,61226,2016-03-24 21:24:02:459
2.7939,-14.2113,-1.4301,0.3627,-9.4212,2.6982,0.1174,8.1967,-10.3924,0.0406,-1.2425,0.1788,13.26,46.18,15.98,345.91,74.24,-17.01,61327,2016-03-24 21:24:02:560
0.3908,-14.5849,0.1697,1.0542,-9.4428,2.4275,0.9757,-6.3505,-2.4869,-0.928,0.2556,-0.5858,14.2,46.62,11.35,343.06,74.34,-23.47,61427,2016-03-24 21:24:02:660
0.407,-6.6076,1.2159,1.2046,-9.5626,1.8098,-1.8057,-3.7701,0.1357,-1.193,2.5346,-0.5875,12.69,48.07,13.45,352.69,77.19,-33.65,61525,2016-03-24 21:24:02:758
0.6153,-4.236,4.3582,2.6087,-9.3359,1.4854,-1.0161,5.0766,-6.5859,-1.227,-0.3258,-2.4928,0.1,47.29,23.7,28.74,76.47,-40.87,61626,2016-03-24 21:24:02:859
-7.2288,-19.266,3.839,4.0439,-8.8971,0.8111,-3.867,2.5384,3.5135,-0.8878,0.0113,-2.3246,-9.44,44.81,26.71,60.87,65.13,-78.66,61726,2016-03-24 21:24:02:959
-0.2424,-12.2385,2.081,2.534,-9.4478,0.698,-3.8628,-8.6405,-4.7486,0.3652,-3.6977,1.9664,-12.51,42.06,29.12,70.76,66.27,-77.86,61827,2016-03-24 21:24:03:060
0.5198,-2.3963,-0.2497,1.3738,-9.6617,0.9666,-2.255,-4.7323,1.6951,1.2003,-2.024,2.2071,-1.91,44.06,31.76,59.99,74.45,-74.6,61926,2016-03-24 21:24:03:159
-1.2663,-3.9877,-11.5671,-0.5888,-9.2804,3.1141,0.8187,7.2973,-1.5032,2.1437,-1.8251,1.6526,11.38,43.91,25.27,350.05,78.04,-10.71,62026,2016-03-24 21:24:03:259
0.7041,-19.3911,1.3008,-0.6054,-9.2449,3.2148,0.4712,5.1977,-7.5463,1.3837,1.9204,1.3031,16.65,45.92,14.4,322.21,71.15,10.71,62127,2016-03-24 21:24:03:360
-1.9431,-12.0289,0.5896,0.137,-9.6659,1.6499,2.0000E-04,-2.1621,-1.011,-1.3592,1.6756,-0.2601,15.41,46.9,11.68,326.34,75.19,1.93,62225,2016-03-24 21:24:03:458
-0.4514,-2.2551,-0.2334,0.9829,-9.7524,0.3068,-1.3535,6.0558,-0.0521,-1.2315,1.1509,-0.6159,10.68,45.56,21.75,5.23,84.2,-32.76,62326,2016-03-24 21:24:03:559
-2.1,-10.4801,3.3596,2.6381,-9.4449,0.0661,2.5382,5.6211,-6.4441,-0.6011,1.4232,-1.3644,6.92,45.13,27.66,51.41,83.97,-72.66,62426,2016-03-24 21:24:03:659
-1.6101,-12.3998,-5.2504,4.7332,-8.5811,0.3636,-6.2106,-12.0009,2.9632,-0.8408,2.6102,-3.9328,-2.82,44.81,29.18,54.35,61.8,-84.9,62526,2016-03-24 21:24:03:759
1.418,-12.3809,0.2094,3.0844,-9.303,-0.3334,-3.3712,-3.7901,-1.4603,0.187,-2.6825,2.1614,-21.54,40.01,27.67,113.26,71.56,-96.17,62625,2016-03-24 21:24:03:858
-2.5143,-0.4327,-2.6603,0.8216,-9.6711,1.4017,-0.2491,4.6236,-0.3152,2.2702,-3.6861,1.5289,0.21,42.88,29.46,83.89,81.54,-96.49,62726,2016-03-24 21:24:03:959
2.191,-9.0756,-2.539,0.227,-9.3926,2.8105,-3.0994,6.7996,-6.2103,2.8175,-1.4169,1.2006,13.34,45.28,18.99,356.94,80.46,-30.38,62826,2016-03-24 21:24:04:059
-1.6755,-13.9575,1.7886,0.4628,-9.5092,2.3517,-1.2515,-7.7912,-0.2591,-0.9542,1.5464,-1.0338,19.6,45.62,8.46,321.34,75.85,-11.13,62926,2016-03-24 21:24:04:159
-0.3691,-8.573,-0.2871,0.3935,-9.6888,1.4635,-1.7608,-4.2378,-0.2922,-1.4722,1.5659,-0.2416,16.41,46.66,12.3,331.6,81.11,-15.05,63026,2016-03-24 21:24:04:259
1.166,-2.2106,-8.1892,1.6918,-9.658,0.1781,1.6535,8.9358,-6.573,-1.1208,2.3218,-1.4813,11.74,45.48,24.93,46.84,80.01,-83.99,63126,2016-03-24 21:24:04:359
3.7192,-10.0153,3.078,3.2541,-9.2502,0.1224,-4.5628,1.585,-1.3125,-1.3385,3.7226,-2.5888,2.93,44.42,28.62,57.39,70.61,-87.85,63228,2016-03-24 21:24:04:461
-1.741,-10.7909,1.089,4.8012,-8.5036,0.898,-5.5326,-8.785,-2.5633,0.5654,-0.1895,-0.5723,-17.9,40.03,30.89,74.26,60.13,-79.41,63326,2016-03-24 21:24:04:559
0.7318,-8.7686,1.1366,3.46,-9.1545,0.627,-4.7053,-3.4094,0.2847,0.9107,-3.6264,2.5433,-17.76,41.35,31.44,73.48,60.13,-79.41,63426,2016-03-24 21:24:04:659
0.6111,-3.0098,-0.718,1.4586,-9.2845,2.8001,-3.6453,5.1282,-7.0637,2.3322,-1.9435,1.9444,6.83,45.59,24.35,7.31,71.22,-27.51,63527,2016-03-24 21:24:04:760
3.7347,-19.4222,-4.8845,1.0391,-9.1384,3.4031,-1.497,5.4751,-4.9117,1.2538,-2.0968,1.3317,15.63,46.55,15.45,348.19,71.22,-27.51,63626,2016-03-24 21:24:04:859
-1.3976,-15.3962,1.9709,1.8355,-9.3996,2.1094,-2.6775,-5.8926,0.9984,-1.3575,-0.033,-0.5014,17.25,46.84,12.82,352.7,73.43,-41.03,63726,2016-03-24 21:24:04:959
-0.0855,-5.319,0.1425,1.7969,-9.5375,1.4061,-2.4899,-4.3297,0.166,-1.2142,0.583,-0.0919,16.52,45.78,16.49,3.65,76.55,-51.96,63826,2016-03-24 21:24:05:059
5.6152,-3.0726,-12.3763,1.9705,-9.5243,1.2554,-0.8554,7.1296,0.0466,-0.0869,5.8184,-0.5972,12.57,44.88,25,30.22,77.94,-66.87,63926,2016-03-24 21:24:05:159
0.8517,-16.1025,5.9291,2.9194,-9.2296,1.5693,1.8755,4.0196,-10.8479,-0.7121,2.0563,-2.5543,3.21,44.77,27.87,38.37,76.22,-57.5,64026,2016-03-24 21:24:05:259
-1.3761,-10.2906,-4.6566,4.0522,-8.7593,1.7393,-4.8673,-9.7824,-0.1923,0.5128,-0.4637,0.6035,-13.36,43.88,31,59.2,63.28,-66.77,64127,2016-03-24 21:24:05:360
0.5197,-5.2723,0.2612,3.0479,-9.1738,1.6499,-5.2432,-4.0263,-3.1728,0.6699,-2.6295,2.3246,-12.43,44.27,31.04,59.42,69.3,-61.57,64226,2016-03-24 21:24:05:459
-2.3048,-2.9773,-6.8936,1.0293,-9.2065,3.2174,-0.5488,5.0331,-2.8313,1.8069,-0.553,1.8386,10.05,47.1,20.91,355.28,69.85,-17.74,64326,2016-03-24 21:24:05:559
2.554,-18.7685,-1.1502,0.7185,-9.0517,3.7043,-1.8912,4.3289,-7.9999,0.6136,-1.66,0.3098,15.84,46.53,14.46,338.78,67.37,-10.98,64426,2016-03-24 21:24:05:659
0.6771,-13.9881,1.0174,1.4724,-9.2518,2.8993,-0.1725,-7.1395,-1.5844,-1.4146,0.3855,-0.4864,16.5,47.64,9.86,337.97,67.65,-18.48,64526,2016-03-24 21:24:05:759
-0.5537,-5.4307,0.4408,1.6238,-9.5563,1.4872,-1.8626,1.3868,-0.7362,-1.3381,1.2361,-0.3262,15.41,46.6,15.5,354.33,74.69,-36.22,64626,2016-03-24 21:24:05:859
1.5435,-1.2836,-6.1398,1.8717,-9.5257,1.3886,-2.357,5.8258,-0.7754,0.082,1.5242,-0.7416,9.44,45.15,26.05,25.35,76.25,-53.43,64725,2016-03-24 21:24:05:958
-1.2577,-14.8046,6.2371,4.0443,-8.8836,0.9465,-5.9236,-2.3185,4.156,-0.8122,1.7267,-1.4965,-7.26,43.06,31.45,60.81,71.5,-69.73,64828,2016-03-24 21:24:06:061
-1.131,-12.8694,-3.2031,3.9425,-8.9201,1.0293,-4.1067,-11.2887,2.8858,-0.8122,1.7267,-1.4965,-7.26,43.06,31.45,60.81,71.5,-69.73,64925,2016-03-24 21:24:06:158
0.1785,-3.9365,0.8675,1.7446,-9.5285,1.5281,-3.461,-2.7046,0.2811,0.8732,-3.1998,2.2603,-10.78,42.98,30.25,68.2,71.4,-71.65,65025,2016-03-24 21:24:06:258
-0.1417,-1.3913,-5.2316,0.2614,-9.4331,2.668,-0.1859,4.9525,-1.5525,1.8303,-1.8088,2.3696,-0.83,44.83,28.87,5.46,74.14,-5.6,65125,2016-03-24 21:24:06:358
0.6433,-19.4222,2.8393,0.017,-9.2098,3.3689,2.5049,0.6286,-4.4846,0.207,-1.4377,0.2014,17.01,45.36,15.85,322.86,71.1,11.49,65226,2016-03-24 21:24:06:459
-1.1366,-12.9057,1.2967,0.5793,-9.2752,3.1313,-0.4447,-5.177,-2.402,0.6067,-0.4588,-1.412,17.9,46.15,14.84,329.12,69.91,-0.29,65326,2016-03-24 21:24:06:559
-0.2265,-5.7942,0.532,0.9642,-9.6548,1.4232,-1.3179,1.0438,-0.5808,-1.5217,1.078,-0.5815,10.99,46.75,19.95,352.55,76.34,-17.95,65427,2016-03-24 21:24:06:660
-0.3022,-7.2941,-0.6038,1.8166,-9.5489,1.2996,2.7595,6.8684,-4.7147,-0.9318,1.9454,-1.0194,7.67,46.3,24.35,12.05,79.9,-34.12,65526,2016-03-24 21:24:06:759
-2.6469,-17.3855,5.6333,4.2683,-8.7427,1.2315,-3.5383,-4.3545,4.4614,-1.0517,0.395,-2.4518,-10.07,43.09,29.67,59.88,63.06,-73.91,65626,2016-03-24 21:24:06:859
-1.3707,-14.1985,-0.1862,3.7896,-8.9478,1.3212,-7.2103,-9.9014,0.5268,0.089,0.5798,-0.0822,-15.93,40.86,31.05,70.39,65.84,-70.78,65726,2016-03-24 21:24:06:959
0.048,-2.6697,1.2096,1.8023,-9.5069,1.5942,-1.8929,-2.0362,-0.2707,1.1698,-4.086,2.1933,-7.41,44.09,29.67,61.77,73.27,-69.58,65826,2016-03-24 21:24:07:059
0.5991,-3.3702,-1.8962,0.7933,-9.3233,2.9355,-2.0091,5.5181,-3.0204,2.477,-1.834,1.7787,5.32,44.5,25.51,2.87,71.94,-15.12,65926,2016-03-24 21:24:07:159
-0.4502,-18.2122,1.8241,0.8533,-9.2491,3.1459,3.5573,-4.8824,-8.2809,-0.0517,-1.4476,-0.3527,17.93,45.63,13.22,330.49,68.51,-4.04,66026,2016-03-24 21:24:07:259
-1.0284,-12.6111,1.1249,1.156,-9.4684,2.2769,-1.4104,-3.8294,-0.0614,-1.4752,0.33,-0.6966,16.49,46.7,14.3,339.98,70.59,-15.18,66126,2016-03-24 21:24:07:359
-0.1239,-2.0496,0.2202,1.3661,-9.686,0.6974,-1.6953,3.5482,-0.065,-1.2967,0.4092,-0.2548,11.38,44.52,23.83,30.78,81,-62.96,66226,2016-03-24 21:24:07:459
8.8484,-3.9699,-5.3509,1.5741,-9.6037,1.2093,-0.0264,6.5971,1.7182,-0.0276,3.8266,-0.6649,10.1,44.35,28.28,25.77,78.32,-52.47,66326,2016-03-24 21:24:07:559
-3.5465,-17.6829,2.9282,3.8603,-8.7515,2.1633,-5.119,-8.8364,1.3604,-0.197,0.4227,-1.6646,-13.96,44.72,26.93,55.13,63.18,-60.73,66426,2016-03-24 21:24:07:659
-0.9066,-11.8009,-0.5613,2.8656,-9.2044,1.7994,-5.4213,-7.1709,-0.8178,-0.1263,-1.4221,1.7746,-19.94,43.35,27.72,64.86,63.18,-60.73,66526,2016-03-24 21:24:07:759
-0.7434,-0.1084,0.4887,1.0344,-9.4368,2.4593,0.2877,2.9098,-1.2895,1.8131,-4.317,2.2197,-1.43,45.34,29.49,17.93,74.21,-22.81,66626,2016-03-24 21:24:07:859
2.3265,-10.3741,-8.2871,0.7616,-8.6864,4.4875,-0.5576,2.467,-7.6143,0.7192,-0.8497,-0.6059,18.48,46.95,11.54,335.76,62.35,-9.63,66726,2016-03-24 21:24:07:959
-0.1868,-11.3521,1.2839,1.3101,-8.9507,3.7867,1.0684,-10.9063,-8.0324,-0.9742,0.3239,-0.6159,15.6,47.44,11.36,337.59,62.35,-9.63,66826,2016-03-24 21:24:08:059
-0.1755,-9.4467,0.0508,0.9861,-9.5134,2.1666,-0.7679,-0.0666,-1.7191,-1.4005,0.3106,-0.1638,12.14,46.38,20.33,352.21,71,-18.6,66927,2016-03-24 21:24:08:160
7.2987,-0.7878,-4.6129,0.7802,-9.5396,2.1351,0.9957,5.9763,0.473,-0.0279,5.1635,-0.4154,10.8,45.54,24.47,356.69,76.6,-20.07,67026,2016-03-24 21:24:08:259
0.1242,-9.9464,2.0046,3.4555,-8.8278,2.5098,-2.5336,-2.3035,-1.1787,-0.6243,-0.2474,-3.0299,-10.95,44.9,28.58,36.87,71.58,-30.93,67126,2016-03-24 21:24:08:359
-1.0328,-7.8665,-2.8245,3.571,-8.7678,2.558,-6.7792,-11.7984,2.6451,1.0486,-0.5498,1.0727,-18.21,39.87,29.96,59.93,64.18,-54.01,67226,2016-03-24 21:24:08:459
0.5762,-5.3083,0.4706,1.9974,-9.1409,2.9366,-2.3172,-4.083,-2.437,1.5265,-3.8423,2.2233,-5.18,45.39,29.11,35.23,67.21,-43.81,67326,2016-03-24 21:24:08:559
0.4812,-2.8652,-0.9247,1.1641,-8.9931,3.7336,-0.8539,3.8232,-2.8635,1.4659,-0.7143,2.2279,5.45,46.07,24.76,3.67,66.5,-17.32,67427,2016-03-24 21:24:08:660
4.607,-18.2923,-0.4682,0.3318,-8.7858,4.3439,1.8871,-1.232,-4.5581,-0.238,3.9355,-1.702,17.99,43.98,11.13,330.79,63.62,-4.37,67526,2016-03-24 21:24:08:759
-1.7122,-13.0035,0.6226,0.3599,-9.0318,3.8036,3.4518,-11.611,-4.6977,-1.3357,1.7193,-0.6832,14.66,49.06,13.11,337.01,67.07,-5.4,67626,2016-03-24 21:24:08:859
-0.4424,-2.6411,0.2238,0.5153,-9.5617,2.1163,-1.0347,2.4222,-1.633,-1.2334,0.4074,-0.4902,9.86,45.81,24.38,353.47,77.17,-13.69,67726,2016-03-24 21:24:08:959
4.3397,-1.0462,-2.174,0.6947,-9.6085,1.8341,-0.9826,7.1404,-0.3771,-1.2334,0.4074,-0.4902,9.86,45.81,24.38,353.47,77.17,-13.69,67828,2016-03-24 21:24:09:061
-0.3018,-19.4222,5.4231,3.4521,-8.8932,2.2724,-0.1969,-6.0227,-0.006,-0.0852,2.6651,-3.6528,-3.85,44.44,27.77,36.6,73.95,-42.46,67926,2016-03-24 21:24:09:159
-2.7652,-13.9102,-1.3108,3.5421,-8.7889,2.5257,-5.3737,-9.8738,2.1526,-0.4958,1.3375,-2.5932,-17.16,44.6,27.45,58.5,65.07,-56.64,68026,2016-03-24 21:24:09:259
0.5879,-4.4988,-0.2963,1.6199,-9.3122,2.6133,-1.2773,-3.0055,-2.2369,0.4189,-4.3723,2.9159,-17.16,44.5,26.77,54.47,69.27,-45.55,68126,2016-03-24 21:24:09:359
-2.3628,-0.8171,-4.559,0.5417,-9.1467,3.495,-0.6316,4.8044,-3.3529,1.6345,-3.539,2.3498,-3.92,45.18,28.47,11.24,68.86,-8.81,68226,2016-03-24 21:24:09:459
0.8424,-19.4222,13.8153,-0.002,-8.6497,4.6209,2.8719,-1.794,-5.8105,0.9205,-1.4004,0.5449,16.97,45.33,16.75,334.83,61.89,0.02,68326,2016-03-24 21:24:09:559
-0.4466,-10.1374,-0.4372,0.0899,-8.7512,4.4248,1.8391,-12.3351,1.8891,0.6662,0.4655,-0.895,17.99,44.97,11.75,330.47,61.89,0.02,68426,2016-03-24 21:24:09:659
-0.065,-3.5334,1.212,0.1638,-9.3513,2.949,-0.5886,1.6892,-1.8656,-1.0946,1.0033,-0.6104,13.46,46.3,20.75,341.11,72.47,-3.18,68526,2016-03-24 21:24:09:759
1.9355,-3.0724,-6.2278,0.6065,-9.4512,2.545,3.6204,7.1508,-8.1026,-0.5423,1.8809,-1.0356,8.96,47.33,24.45,355.08,74.53,-13.41,68626,2016-03-24 21:24:09:859
-3.5302,-19.124,1.2125,2.5643,-9.2673,1.9266,-2.3947,-6.452,4.1263,-0.8971,0.4543,-2.0079,-7.98,46.26,28.53,41.21,73.82,-41.24,68726,2016-03-24 21:24:09:959
-2.4918,-14.0314,-0.2133,1.4094,-9.4438,2.2359,-4.0681,-7.3973,-3.0752,0.6696,-2.5001,1.6906,-13.08,43.32,28.46,51.66,71.84,-45.88,68827,2016-03-24 21:24:10:060
0.0959,-2.1822,-0.8573,0.603,-9.4086,2.6991,-1.2286,-0.0629,-2.3131,0.8448,-3.173,2.2207,-4.19,44.81,28.72,14.69,73.62,-12.59,68926,2016-03-24 21:24:10:159
1.4082,-4.4348,-1.8571,-0.4001,-8.7293,4.4508,-0.5462,6.2558,-5.5249,1.5918,-2.1798,1.9476,4.74,45.68,26.29,1.18,73.62,-12.59,69026,2016-03-24 21:24:10:259
0.2968,-19.4222,6.2035,-0.148,-8.6096,4.6929,1.6031,-3.3853,-6.0291,0.6287,-0.4847,-0.1514,19.43,46.1,12.48,326.39,62.89,5.14,69126,2016-03-24 21:24:10:359
-1.2716,-11.5844,-0.0271,-0.4751,-9.1884,3.3939,-0.2652,-2.8491,-2.9703,-1.48,2.1052,-0.543,15.83,46.82,15.77,328.25,69.55,7.97,69226,2016-03-24 21:24:10:459
-0.1791,-1.8666,1.0172,-0.3126,-9.427,2.6842,0.104,2.548,-2.0816,-1.0888,0.5644,-0.4545,13.12,46.53,21.45,334.07,74,6.64,69326,2016-03-24 21:24:10:559
4.1199,-6.5693,-13.1159,0.9587,-9.5123,2.1837,3.1849,1.5432,-11.3733,-0.6131,1.6885,-2.3339,3.21,44.26,26.82,12.74,75.93,-23.7,69425,2016-03-24 21:24:10:658
-2.2151,-15.4068,1.3761,2.1917,-9.3727,1.8761,-2.243,-8.468,3.6943,-0.7063,1.1162,-2.1394,-7.54,43.25,29.86,29.7,75.93,-23.7,69527,2016-03-24 21:24:10:760
-1.5909,-11.8519,0.1994,1.0973,-9.4862,2.2313,-5.0329,-2.6332,-3.0298,0.5516,-2.7908,2.1536,-13.76,43.41,29.66,39.8,75.31,-26.19,69626,2016-03-24 21:24:10:859
-2.3813,-1.0987,-2.3694,0.4311,-9.3759,2.8421,-0.6498,-1.8096,-1.9818,1.305,-3.8585,2.0575,-4.35,44.65,29.89,11.66,72.95,-8.62,69726,2016-03-24 21:24:10:959
1.233,-11.8343,-1.7702,-0.4238,-8.5949,4.7031,-1.4541,3.647,-8.2654,0.7135,-0.3892,0.4093,14.07,46.28,16.7,336.68,61.22,5.15,69826,2016-03-24 21:24:11:059
0.3941,-11.2358,-0.8695,0.1822,-8.5503,4.7988,0.9941,-5.2649,-5.2687,0.5906,-1.7674,-0.3315,16.28,46.75,13.15,332.41,61.22,5.15,69926,2016-03-24 21:24:11:159
-0.768,-9.5816,0.4349,0.3325,-9.1126,3.6084,-1.1074,-3.1081,-2.3547,-1.3281,1.0803,-0.3783,13.24,46.83,17.45,343.43,62.88,-5.85,70026,2016-03-24 21:24:11:259
1.6067,-1.7823,3.2927,0.4421,-9.3576,2.9,-0.684,1.857,-2.1267,-1.0633,-0.0301,-0.2806,10.56,46.92,21.14,346.55,68.31,-5.26,70126,2016-03-24 21:24:11:359
-1.1334,-9.9872,1.5605,1.1858,-9.3886,2.5726,4.3842,2.0009,-12.8717,-1.1039,0.97,-3.0394,-2.18,46.05,27.54,6.69,72.94,-5.52,70226,2016-03-24 21:24:11:459
-3.9403,-6.9113,-3.2133,2.5082,-9.1902,2.3282,-2.4051,-7.4752,3.8906,-0.2832,1.4712,-1.8859,-10.93,41.83,31.99,48.36,69.58,-47.13,70326,2016-03-24 21:24:11:559
0.2878,-10.3304,0.1408,1.551,-9.342,2.5477,-5.0266,-2.0308,-3.9729,0.1014,-4.0258,2.52,-11.56,44.47,31.69,45.3,68.88,-42.69,70426,2016-03-24 21:24:11:659
-0.6816,-0.7677,0.5504,1.0751,-9.3559,2.7354,-0.6873,-2.1388,-2.0067,1.2956,-4.7624,1.7228,0.38,44.93,31,15.46,72.56,-21.46,70526,2016-03-24 21:24:11:759
-1.6993,-14.2294,0.3022,1.4247,-8.4317,4.8007,-4.2234,3.2401,-8.0103,0.8597,0.0605,0.4996,17.04,46.6,13.23,342.04,59.29,-16.53,70626,2016-03-24 21:24:11:859
0.5828,-15.9164,0.0501,1.5725,-8.309,4.9657,-2.6791,-7.2663,-3.8347,0.8597,0.0605,0.4996,17.04,46.6,13.23,342.04,59.29,-16.53,70726,2016-03-24 21:24:11:959
-0.3815,-11.3817,0.62,1.1423,-8.8037,4.1666,-1.2477,-3.8826,-2.9349,-1.1611,2.259,-0.2014,19.86,46.96,8.45,332.06,63.86,-15.33,70825,2016-03-24 21:24:12:058
1.8116,-1.6681,0.3591,0.7601,-9.1314,3.4944,0.1374,4.8618,-2.1897,-0.971,0.8422,-0.377,14.33,45.78,20.6,349.17,67.71,-16.16,70926,2016-03-24 21:24:12:159
-0.6682,-6.3241,-0.1705,1.3178,-9.1116,3.3783,2.4249,4.5417,-8.3452,0.1491,3.9714,-0.7609,13.72,45.72,22.97,353.58,68.3,-21.31,71026,2016-03-24 21:24:12:259
-1.6171,-10.3772,-1.8202,2.4009,-9.0102,3.0369,-3.0223,-10.0058,-0.0291,-0.575,1.1284,-1.1365,-1.81,44.81,30.07,27.95,67.56,-38.11,71126,2016-03-24 21:24:12:359
-3.0505,-9.6365,-0.3009,1.93,-9.0029,3.3755,-4.8667,-3.9265,-3.5016,1.0042,-0.5445,0.5812,-4.78,44.4,30.36,31.93,66.75,-38.33,71226,2016-03-24 21:24:12:459
-1.8307,-0.7052,-4.0352,1.0218,-8.7718,4.264,-1.3534,4.9082,-4.4183,1.0685,-2.6028,1.8756,3.74,46.86,24.34,6.03,66.63,-19.62,71326,2016-03-24 21:24:12:559
-1.0873,-13.3325,0.2917,1.1312,-8.6041,4.5674,-2.212,5.9117,-6.7036,1.2609,-2.4955,1.2332,12.48,45.91,20.38,350.67,61.33,-13.91,71425,2016-03-24 21:24:12:658
0.808,-16.169,-0.742,1.3761,-8.6069,4.4942,-0.6386,-9.8194,-0.993,0.1169,0.0644,-0.4659,19.23,45.64,11.23,339.44,61.72,-20.95,71526,2016-03-24 21:24:12:759
0.1849,-6.2439,0.1627,0.3692,-8.8184,4.2743,0.022,-1.8846,-4.8551,-0.3018,4.4014,-0.1963,17.36,46.46,11.14,339.91,61.36,-17.02,71626,2016-03-24 21:24:12:859
1.7398,-5.2465,-3.5138,0.7177,-9.1444,3.4691,2.0607,4.3602,-7.2579,-0.3593,0.8519,-1.0255,13.29,47.34,21.72,343.15,66.79,-2.81,71726,2016-03-24 21:24:12:959
-0.0638,-10.4134,1.6175,1.791,-9.1617,3.0045,-0.1424,-0.4444,-4.2188,-1.2123,2.3091,-2.4209,7.01,46.93,24.85,9.59,69.1,-30.8,71826,2016-03-24 21:24:13:059
-2.0935,-11.0547,1.4366,2.7409,-8.9133,3.035,-3.2449,-9.3192,-1.7923,0.1486,-0.0013,-0.3795,-14.37,43.17,30.56,45.8,65.35,-42.09,71926,2016-03-24 21:24:13:159
-1.1202,-4.3787,-2.7873,2.0018,-8.9945,3.3558,-3.7208,-3.9667,-1.2658,1.0322,-2.2912,1.9266,-14.71,43.22,30.01,39.96,66.52,-30.82,72026,2016-03-24 21:24:13:259
1.302,-2.3598,-1.0144,0.3762,-8.6894,4.5303,-1.4502,5.6744,-10.4354,1.0555,-2.2537,2.2645,3.08,46.29,24.99,358.79,62.38,-4.75,72126,2016-03-24 21:24:13:359
-0.2949,-19.0925,2.3933,0.9305,-8.5949,4.6294,0.8098,3.3236,-4.6693,0.4061,-2.9945,0.6928,13.09,45.86,20.15,344.2,62.38,-4.75,72225,2016-03-24 21:24:13:458
-1.6889,-13.7121,1.0215,1.4254,-8.6725,4.3504,-1.3071,-10.592,-1.6807,-0.5637,1.5971,-0.5175,17.38,45.55,12.73,343.11,60.44,-19.67,72326,2016-03-24 21:24:13:559
-0.1312,-6.0389,0.0388,1.126,-8.9272,3.8996,-1.8952,-2.5287,-2.5505,-0.9343,1.8983,-0.3956,15.77,46.7,15.5,345.59,62.17,-18.14,72426,2016-03-24 21:24:13:659
3.0916,-5.0256,-3.6737,1.1482,-9.1083,3.4484,1.8727,5.0692,-7.8311,-0.9424,1.5204,-1.6159,9.55,46.19,23.59,352.67,66.62,-10.74,72527,2016-03-24 21:24:13:760
-1.4921,-16.3004,5.4421,2.5407,-9.0081,2.9275,-0.8463,-0.6186,-1.4929,-0.8489,0.6981,-2.636,0.48,44.52,29.21,12.24,68.25,-18.42,72626,2016-03-24 21:24:13:859
-4.309,-12.9911,2.5779,2.5705,-8.9242,3.1499,-3.8316,-7.2096,-5.2699,0.5361,-1.6952,0.8797,-10.99,43.93,30.55,41.51,64.15,-42.81,72725,2016-03-24 21:24:13:958
-0.7724,-3.4979,-1.2128,1.9031,-8.9503,3.527,-5.6606,-4.9263,-0.6128,1.4032,-2.1088,2.2054,-7.18,43.72,29.9,34.59,65.51,-39.22,72826,2016-03-24 21:24:14:059
2.4707,-5.6257,-0.6947,0.174,-8.4511,4.9719,-2.0136,6.9102,-10.9874,0.6371,-2.2284,2.233,11.58,47.32,21.02,349.5,62.38,-10.94,72926,2016-03-24 21:24:14:159
-1.6861,-19.4222,3.0379,0.9224,-8.3849,5.0013,1.0893,2.3919,-4.7544,0.308,-3.0797,-0.5167,19.93,43.7,14.56,336.26,58.76,-10.45,73026,2016-03-24 21:24:14:259
-1.3627,-11.7822,0.599,1.2863,-8.5802,4.5712,-0.7615,-9.4607,-2.6079,-1.143,1.6724,-0.445,18.54,45.36,11.16,338.65,58.33,-18,73126,2016-03-24 21:24:14:359
1.9198,-2.7012,-7.8773,0.9662,-9.0174,3.7315,0.505,3.9755,-9.7187,-1.9739,5.2681,-1.8972,13.95,45.77,18.96,347.05,66.86,-14.52,73226,2016-03-24 21:24:14:459
-0.9521,-5.5048,3.1852,1.6621,-9.2425,2.8257,-1.7399,3.0733,-4.5681,-1.9416,0.7686,-2.1858,6.65,46.87,24.08,358.95,66.86,-14.52,73326,2016-03-24 21:24:14:559
-3.6879,-19.4222,1.2506,3.0016,-9.0796,2.173,-5.4574,-10.5603,0.8186,0.3082,-0.4203,1.087,-9.89,43.26,30.91,49.52,68.15,-52.45,73426,2016-03-24 21:24:14:659
-1.2418,-9.8672,1.6416,2.2161,-9.3508,1.9551,-3.3225,-5.7103,-3.3377,0.1952,-3.6063,2.0051,-5.51,42.9,31.28,43.96,72.46,-48.58,73526,2016-03-24 21:24:14:759
0.1735,-0.8618,0.2885,1.1493,-9.0739,3.5376,-0.9582,3.6904,-3.0284,1.5422,-2.6233,1.9508,4.51,42.89,31.29,28.92,72.46,-48.58,73626,2016-03-24 21:24:14:859
1.3746,-11.1459,-1.004,1.059,-8.6204,4.554,-2.8332,6.2927,-9.4349,3.2547,-2.7051,0.9218,11.84,43.62,24.44,351.9,61.53,-13.09,73726,2016-03-24 21:24:14:959
0.7186,-13.6842,-0.6901,1.0952,-8.8316,4.1199,-2.2537,-11.348,-0.0649,-0.6658,0.4584,-1.089,20.72,44.84,10.26,332.61,61.39,-14.17,73826,2016-03-24 21:24:15:059
0.218,-8.2073,1.1512,1.0098,-9.1558,3.3649,-0.2543,-4.4094,-3.334,-1.2322,3.1742,-0.7407,18.99,46.1,14.17,338.02,64.23,-14.89,73926,2016-03-24 21:24:15:159
5.9912,1.7163,-9.0732,2.2112,-9.0592,3.0351,3.9069,7.7991,-9.2862,-0.0431,0.3132,-0.912,16.62,42.9,24.3,0.51,67.49,-36.07,74026,2016-03-24 21:24:15:259
1.0601,-14.1023,5.3489,3.6412,-8.4817,3.3125,-3.4888,1.5822,-0.989,-0.0083,2.8207,-3.2604,10.7,44.95,25.13,7.92,67.49,-36.07,74126,2016-03-24 21:24:15:359
0.8747,-9.8671,-4.1346,4.1772,-7.9182,4.0029,-5.1266,-10.2157,-7.1058,0.7146,1.8529,-1.0055,-14.54,42.54,29.5,45.01,52.94,-49.6,74226,2016-03-24 21:24:15:459
-2.4735,-10.0825,-0.0636,3.296,-8.4543,3.7191,-4.5211,-5.0236,-3.3316,0.3621,-2.3129,2.3818,-15.67,44.75,26.95,43.88,59.55,-41.55,74327,2016-03-24 21:24:15:560
2.3869,-1.0159,-1.9707,0.4027,-8.5173,4.844,0.3192,5.0847,-3.1858,1.3356,-0.9512,2.987,5.16,45.74,26,10.75,63.68,-28.83,74426,2016-03-24 21:24:15:659
3.1672,-14.9534,-2.7825,-0.1928,-8.0926,5.5356,2.6157,4.0881,-7.3918,1.9721,0.9658,1.7387,15.94,45.26,21.8,338.76,55.61,2,74526,2016-03-24 21:24:15:759
-1.221,-13.5738,1.5691,1.9262,-8.6952,4.1053,-2.2972,-12.5708,-1.2511,-1.0101,-2.0316,-0.8665,19.08,45.45,12.3,337.24,58.13,-13.42,74626,2016-03-24 21:24:15:859
-0.9714,-8.0229,0.8585,1.8285,-9.0664,3.2599,-2.6532,-6.5373,-1.0354,-1.6207,0.9142,-0.407,18.36,45.36,13.05,344.18,62.46,-25.14,74726,2016-03-24 21:24:15:959
5.7241,-1.8607,-10.2246,2.2833,-9.0898,2.8867,3.1383,7.5528,-8.3826,-0.4444,2.7921,-1.4441,13.17,44.7,24.34,2.81,70.69,-32.63,74826,2016-03-24 21:24:16:059
-0.1251,-9.2814,4.879,3.5432,-8.6068,3.0885,-3.083,-0.2405,-1.5131,-0.4914,2.4951,-2.957,5.99,45.27,26.71,21.76,61.36,-48.92,74927,2016-03-24 21:24:16:160
-3.0435,-13.8157,-0.178,3.8409,-8.2931,3.5555,-4.2349,-10.3494,-7.3045,0.6666,0.069,0.4904,-14.56,44.23,29.18,47.02,56.23,-51.25,75026,2016-03-24 21:24:16:259
-0.3396,-7.2173,0.7816,1.9779,-8.9962,3.3654,-2.4609,-0.9643,-1.8101,1.0586,-2.7502,2.6607,-1.3,44.26,28.15,21.01,66.54,-30.44,75126,2016-03-24 21:24:16:359
1.4803,-3.4373,-2.9234,0.8101,-8.5319,4.7666,-0.4548,4.6701,-3.4399,2.5588,-0.4476,2.2869,8.73,44.35,25.38,6.75,66.54,-30.44,75226,2016-03-24 21:24:16:459
1.3654,-19.4222,0.8645,0.5231,-8.3966,5.0392,2.4162,-7.1392,-9.9435,-0.6665,-0.6513,-0.925,18.64,45.34,13.81,334.66,58.89,-5.93,75326,2016-03-24 21:24:16:559
-0.7451,-11.0717,1.6587,1.058,-8.8204,4.1535,-0.6074,-11.9217,-1.6964,-1.4418,0.4233,-0.96,16.88,46.8,14.11,337.7,58.89,-5.93,75426,2016-03-24 21:24:16:659
-1.5318,-6.8258,0.6685,1.0066,-9.4501,2.4192,-1.9156,2.224,-1.5434,-1.2949,1.248,-0.4167,13.04,44.99,24.35,352.46,69.99,-17.1,75526,2016-03-24 21:24:16:759
8.4399,-1.2912,-5.5294,0.945,-9.2927,2.9872,-0.442,6.0643,0.3551,1.2639,2.2268,-0.5201,10.54,44.78,28.87,357.72,71.37,-17.56,75627,2016-03-24 21:24:16:860
-2.5467,-11.2798,7.6185,3.4489,-8.2187,4.09,-5.1062,-5.1535,3.5897,0.2924,1.9641,-2.2708,-10.56,43.46,26.96,34.69,64.13,-31.97,75726,2016-03-24 21:24:16:959
-0.126,-10.254,-2.1294,2.9464,-8.4658,3.9774,-4.1285,-10.6967,-6.6207,-0.0879,-1.235,1.7575,-18.29,43.63,24.62,44.6,56.94,-40.14,75826,2016-03-24 21:24:17:059
0.6714,-1.8844,0.8813,1.5562,-9.0493,3.4436,-1.2616,-0.4999,-1.5597,1.3248,-3.6584,2.5144,3.01,44.86,25.82,16.48,66.13,-33.18,75926,2016-03-24 21:24:17:159
2.1092,-5.0354,-3.7865,0.2877,-8.6243,4.6592,-0.3538,5.6165,-2.6409,2.3211,2.2812,1.8691,14.81,45.3,21.08,352.97,67.34,-24.32,76026,2016-03-24 21:24:17:259
1.7338,-19.4222,-3.3837,0.4193,-8.7968,4.3141,3.0114,-6.7398,-2.6702,-1.4947,0.2347,-1.0116,18.24,46.88,14.31,334.57,63.77,-5.55,76126,2016-03-24 21:24:17:359
-2.7223,-13.0929,2.005,0.8411,-9.252,3.1406,-0.0037,-9.6718,-3.7793,-1.9648,0.2358,-0.7721,13.9,46.08,17.84,345.81,70.64,-14.99,76225,2016-03-24 21:24:17:458
-0.8233,-3.0415,0.086,1.4041,-9.5357,1.8082,-2.045,3.9806,-1.1863,-0.6753,1.4329,-0.7331,9.39,44.17,28.28,6.9,75.24,-27.12,76326,2016-03-24 21:24:17:559
2.1108,-5.2324,-3.4055,1.6498,-9.359,2.4202,1.095,7.1364,-2.2664,1.215,5.4757,-1.526,6.34,43.59,29.91,20.32,76.5,-37.83,76426,2016-03-24 21:24:17:659
-3.8777,-19.4222,3.1485,3.3017,-8.8087,2.7705,-6.4536,-10.1009,2.8763,-1.0009,-0.5355,-3.7579,-4.11,47.81,26.8,28.94,72.62,-34.28,76526,2016-03-24 21:24:17:759
-1.9208,-14.0278,-2.4394,2.4099,-9.0719,2.8394,-0.6726,-7.4321,-4.422,0.5434,0.4637,1.5027,-16.32,43.24,27.61,52.84,63.93,-50,76626,2016-03-24 21:24:17:859
0.8883,-1.8863,1.6524,0.5384,-9.3921,2.7692,-0.2872,0.2648,-2.1143,-0.0665,-3.6676,2.7241,-5.36,47.52,25.78,26.5,72.28,-28.9,76725,2016-03-24 21:24:17:958
2.3555,-9.0401,-4.7381,-0.5976,-8.7567,4.3741,0.6897,3.3707,-6.755,2.3784,1.5525,1.1395,15.9,44.37,20.24,332.44,66.22,5.91,76827,2016-03-24 21:24:18:060
-1.6932,-19.0703,0.0202,-0.0297,-9.1144,3.619,2.3263,-6.662,-3.3676,-1.0322,-1.941,-0.516,19.14,45.43,14.09,327.04,68.34,0.47,76926,2016-03-24 21:24:18:159
-0.7658,-9.515,0.4693,0.1056,-9.4406,2.6521,-0.1634,-10.5974,-2.3703,-1.2594,2.0062,-1.0437,18.07,46.55,11.55,324.94,74.3,-2.28,77026,2016-03-24 21:24:18:259
-0.6263,-3.0787,0.3084,0.5335,-9.7593,0.8017,-1.3431,3.0258,-0.4006,-1.4339,0.4732,-0.4954,13.46,45.11,24.38,345.14,80.39,-9.74,77126,2016-03-24 21:24:18:359
8.6992,-4.0016,-8.9874,2.3169,-9.2784,2.1711,2.9757,1.269,-8.4004,1.449,5.0419,-2.0463,6.94,43.4,30.37,24.14,71.11,-46.86,77226,2016-03-24 21:24:18:459
-0.8066,-19.0825,1.1279,3.1883,-8.9938,2.2619,-5.9653,-10.072,5.7813,-0.2763,-0.3994,-3.194,-3.68,44.53,28.47,37.75,71.11,-46.86,77325,2016-03-24 21:24:18:558
-1.4149,-12.1632,0.0829,1.1323,-9.4395,2.4049,-2.1173,-4.038,-2.0784,0.5752,-3.4192,2.4818,-13.37,44.75,27.64,37.16,74.27,-25.21,77426,2016-03-24 21:24:18:659
-1.9772,-0.388,-2.3889,0.0468,-9.1847,3.4364,-0.3619,2.6773,-2.1067,1.3957,-2.8663,2.7015,-1.52,45.74,27.58,3.22,69.49,-0.78,77526,2016-03-24 21:24:18:759
2.9389,-6.6179,-4.1718,-1.1754,-8.5959,4.5716,2.4637,2.6089,-7.2704,0.2897,-1.3349,1.0941,16.38,44.99,17.1,326.94,61.55,17.77,77625,2016-03-24 21:24:18:858
-2.0124,-10.2868,1.4102,-0.107,-9.0532,3.7681,1.9772,-10.0931,-1.7616,-1.2499,-2.6787,-0.8812,21.38,44.88,13.81,320.56,61.23,14.42,77726,2016-03-24 21:24:18:959
-1.8963,-9.0849,0.7334,0.0424,-9.6897,1.5097,-2.632,-5.0727,0.748,-1.7659,1.5816,-0.4472,16.14,45.06,18.52,331.71,74.78,0.47,77826,2016-03-24 21:24:19:059
1.1057,-0.538,8.7126,0.3158,-9.763,0.869,-0.8422,5.2077,-0.5578,-1.0467,1.0833,-0.539,15.12,43.25,23.84,335.02,81.14,-1.61,77926,2016-03-24 21:24:19:159
1.836,-8.2005,-3.3847,2.2853,-9.3022,2.1016,2.4821,1.2527,-8.4527,0.5401,2.7379,-3.0303,3.85,45.08,29,27.59,71.54,-47.4,78026,2016-03-24 21:24:19:259
-1.2914,-9.7401,-4.9013,2.9556,-9.1212,2.0586,-6.2156,-10.178,5.1618,-0.0726,-0.1299,-1.1003,-9.92,44.37,28.36,50.78,68.45,-55.14,78126,2016-03-24 21:24:19:359
0.0692,-7.2812,0.4906,0.6562,-9.471,2.4577,-1.4783,-3.745,-2.7629,0.8281,-3.2538,2.6323,-5.66,45.45,26.04,19.95,74.97,-14.95,78227,2016-03-24 21:24:19:460
1.5175,-3.5188,-2.3358,-0.5082,-9.148,3.4965,0.5114,2.8795,-2.5506,1.7068,-1.5785,2.5704,4.01,46.64,23.22,349.07,68.88,8.27,78326,2016-03-24 21:24:19:559
3.0175,-15.2834,0.395,-0.7697,-8.7964,4.2662,2.5092,1.2875,-5.4146,-0.1917,-2.9383,-0.3782,20.1,45.34,15.54,323.85,63.76,10.23,78426,2016-03-24 21:24:19:659
-0.489,-12.0867,1.5435,0.3023,-9.0833,3.6841,2.5844,-8.2661,-1.3632,-0.9561,-1.2734,-0.786,19.03,45.92,11.11,328.06,67.86,-4.69,78526,2016-03-24 21:24:19:759
-1.1891,-6.0264,-0.2532,0.4608,-9.6206,1.8443,-1.0996,-3.9735,-0.032,-1.3501,1.8572,-0.6421,14.74,46.27,18.86,341.97,78.82,-14.03,78626,2016-03-24 21:24:19:859
-0.5676,-0.1624,-1.3109,0.8936,-9.6797,1.2944,-1.6256,4.9729,-1.3096,-0.8806,1.0226,-0.9716,11.01,44.58,23.3,7.13,80.77,-34.62,78726,2016-03-24 21:24:19:959
2.0864,-13.8749,3.6816,3.2735,-9.2415,0.2202,-5.6496,-1.6235,5.4602,0.0073,1.0834,-2.0897,-1.12,43.43,30.37,62.91,70.45,-86.15,78826,2016-03-24 21:24:20:059
-1.5623,-11.5641,-2.5029,3.4878,-9.1219,0.893,-2.1056,-10.29,3.3118,0.5307,1.5067,0.2421,-11.59,43.03,30.06,69.63,68.46,-75.64,78926,2016-03-24 21:24:20:159
0.6791,-3.7028,-0.092,1.0546,-9.6196,1.5878,-2.7085,-2.7278,-0.1854,1.2552,-2.37,2.7776,-5.03,45.13,29.77,55.68,73.83,-65.6,79026,2016-03-24 21:24:20:259
0.9017,-3.9188,-3.3528,-0.7905,-9.0345,3.7314,0.5591,4.8976,-7.5579,0.3587,-0.7042,0.6947,12.16,47.9,18.82,337.47,72.77,3.47,79125,2016-03-24 21:24:20:358
3.4895,-19.3695,3.2093,-0.4048,-8.7133,4.4817,2.216,-3.4244,-5.3232,2.5063,-1.7877,-0.3765,15.82,46.24,16.53,333.4,62.69,5.16,79226,2016-03-24 21:24:20:459
-1.6815,-10.6498,-0.1195,0.2057,-9.1252,3.586,0.2502,-5.7487,-3.0763,-1.0891,0.0136,-0.659,11.75,46.32,19.23,342.63,62.46,-0.2,79326,2016-03-24 21:24:20:559
-1.0447,-5.373,0.4019,0.497,-9.397,2.7604,-2.016,-2.4217,-2.435,-1.0891,0.0136,-0.659,11.75,46.32,19.23,342.63,62.46,-0.2,79426,2016-03-24 21:24:20:659
-0.2277,-6.8437,-5.942,1.8701,-9.3461,2.3074,2.1622,2.7747,-10.7793,0.4022,0.8722,-0.753,8.68,45.83,25.8,13.66,72.37,-39.02,79525,2016-03-24 21:24:20:758
-3.0946,-19.4222,7.7798,2.9393,-9.1344,2.023,-6.0866,-5.3744,4.2341,-0.8988,1.3405,-3.2354,4.23,46.67,26.52,20.77,72.37,-39.02,79626,2016-03-24 21:24:20:859
-1.3168,-10.2987,1.4475,1.889,-9.4548,1.7914,-2.6356,-2.8117,-2.0179,0.6694,-1.7079,1.609,-11.43,44.29,28.52,50.93,74.61,-46.52,79726,2016-03-24 21:24:20:959
-0.1318,-1.4763,0.0941,1.1773,-9.4828,2.2045,-1.8689,0.3031,-0.7602,0.5677,-3.7395,2.0751,-2.78,44.57,27.72,24.99,75.24,-28.1,79826,2016-03-24 21:24:21:059
1.0942,-10.5265,-1.8031,0.4158,-8.9638,3.9558,-2.2188,5.2347,-7.2541,1.8776,-1.5854,1.3718,14.43,46.42,18.98,342.24,66.07,-6,79926,2016-03-24 21:24:21:159
1.3524,-16.704,-0.4026,0.3867,-8.922,4.052,0.7634,-5.2376,-4.4381,0.3299,-0.8801,0.2882,18.67,44.49,11.55,329.99,65.48,-5.45,80026,2016-03-24 21:24:21:259
-0.81,-9.622,0.7429,0.2035,-9.3299,3.0135,-1.1967,-3.9343,-2.9612,-1.2249,1.3402,-0.4317,17.34,45.92,12.15,331.65,67.26,-3.94,80126,2016-03-24 21:24:21:359
6.1914,-0.5453,-13.3991,0.2434,-9.4579,2.5805,-1.2132,-2.8728,-1.261,-0.8852,0.517,-0.1675,16.5,45.7,17.09,333.26,72.06,-3.86,80226,2016-03-24 21:24:21:459
-0.8828,-9.5554,4.5213,2.4397,-9.3533,1.6535,-1.7729,-0.5046,-0.5514,-1.3752,3.1321,-2.7731,10.5,45.76,22.39,0.7,76.66,-25.43,80325,2016-03-24 21:24:21:558
-4.0632,-13.4943,-1.0725,3.5786,-8.9957,1.5622,-4.1928,-6.839,4.4526,-1.045,1.4585,-2.554,0.41,44.42,28.48,42.71,66.54,-66.42,80426,2016-03-24 21:24:21:659
-2.7668,-10.4124,0.401,2.5226,-9.2961,1.841,-6.284,-2.9397,-2.3735,0.8831,-2.0962,1.7907,-10.18,43.42,30.03,52.88,71.43,-53.88,80526,2016-03-24 21:24:21:759
-0.0583,-1.3792,-0.0259,1.6327,-9.3963,2.2835,-2.2936,0.9744,-1.4446,1.133,-3.7547,2.4121,-1.51,45.96,28.38,27.87,73.37,-35.57,80626,2016-03-24 21:24:21:859
0.6822,-12.9674,0.2255,0.6563,-9.2538,3.1791,-0.9373,1.9679,-5.7653,0.4985,-1.2628,0.8798,17.59,45.28,17.49,337.37,70.67,-11.66,80726,2016-03-24 21:24:21:959
-1.1689,-11.7864,0.0587,0.7437,-9.2894,3.0535,0.179,-6.0743,-1.9619,-0.2139,1.2973,-0.6106,21.06,44.87,12.1,329.8,71.31,-13.69,80826,2016-03-24 21:24:22:059
-1.0109,-8.9624,0.3142,0.8565,-9.5587,2.0171,-2.0381,-3.8811,-1.6736,-1.0575,0.9942,-0.5048,14.14,46.4,18.95,345.99,73.73,-15.31,80926,2016-03-24 21:24:22:159
5.124,-1.6543,-3.9955,0.9865,-9.6312,1.5609,-2.1001,-1.8145,-0.9527,-0.6857,0.2363,-0.3162,12.28,46.17,22.83,356.68,77.09,-23.01,81026,2016-03-24 21:24:22:259
1.2766,-8.2202,1.0233,3.3363,-9.1431,1.2012,-3.5112,0.1739,1.4243,-0.779,2.0878,-2.5925,2.66,45.83,29.07,40.19,76.81,-58.93,81126,2016-03-24 21:24:22:359
-0.3445,-17.5795,-3.323,3.8405,-8.9034,1.4665,-4.0361,-8.1945,-3.5983,0.4121,-0.9046,0.5948,-12.65,43.22,31.48,63.11,65.22,-69.1,81225,2016-03-24 21:24:22:458
-1.9876,-9.9899,-0.4848,2.8281,-9.2314,1.7186,-5.5483,-5.2731,-0.5086,1.1609,-1.719,2.0284,-9.35,43.29,31.01,54.26,70.28,-58.71,81326,2016-03-24 21:24:22:559
-0.3253,-1.8962,-1.3344,0.2779,-9.2341,3.29,-0.5568,5.1128,-3.7144,1.3977,0.2952,2.1223,6.8,45.98,24.64,352.97,70.33,-4.83,81426,2016-03-24 21:24:22:659
1.4268,-11.8661,-0.373,-0.2536,-9.1714,3.463,1.6509,5.8415,-8.3189,-0.0116,-1.6295,0.8421,12.43,46.98,21.38,344.39,70.33,-4.83,81526,2016-03-24 21:24:22:759
0.8734,-19.4222,0.9421,0.9381,-9.2667,3.0689,0.9108,-10.357,0.2382,-0.7215,1.2285,-0.4712,17.48,47.03,12.48,333.4,69.8,-8.91,81626,2016-03-24 21:24:22:859
-1.2355,-10.1077,0.8737,0.956,-9.4996,2.2394,-0.9587,-5.3847,-2.1949,-1.7301,1.2632,-0.5438,16.2,47.08,16.79,343.63,70.9,-17,81726,2016-03-24 21:24:22:959
-0.4535,-2.7365,1.4265,1.5957,-9.5711,1.4209,-0.4656,5.2521,-5.6601,0.0383,4.8778,-1.529,11.54,45.47,23.4,9.76,79.27,-40.28,81825,2016-03-24 21:24:23:058
-1.3769,-11.1434,3.4677,2.6787,-9.3458,1.2852,-2.5062,0.6469,-5.5936,-1.2524,-0.9046,-2.3079,5.52,46.99,26.7,35.47,72.36,-64.37,81926,2016-03-24 21:24:23:159
1.1579,-15.8987,-0.4272,3.9431,-8.9303,0.9339,-2.499,-9.2165,1.4965,0.5896,0.0835,0.4258,-10.48,42.36,32.59,69.21,66.84,-79.49,82026,2016-03-24 21:24:23:259
-1.7256,-7.3044,0.0031,3.1854,-9.1894,1.2567,-5.0662,-2.9344,-1.7126,1.1485,-1.7561,1.8177,-8.29,43.18,32.31,59.78,69.56,-68.47,82126,2016-03-24 21:24:23:359
-0.1205,-1.6268,-0.9732,0.9925,-9.4136,2.5632,-1.1137,4.9672,-3.3539,1.4236,-1.8788,1.8648,7.89,46.63,24.64,20.9,73.89,-48.15,82225,2016-03-24 21:24:23:458
-2.2051,-19.4222,1.2302,0.6227,-9.2262,3.265,-0.9935,5.3227,-4.6927,1.4236,-1.8788,1.8648,7.89,46.63,24.64,20.9,73.89,-48.15,82326,2016-03-24 21:24:23:559
0.1075,-16.5703,-0.2293,0.7556,-9.2383,3.2022,-2.71,-8.3923,-0.3628,0.0283,-0.7588,-0.1046,17.92,46.31,11.54,334.44,68.75,-12.61,82426,2016-03-24 21:24:23:659
0.8831,-8.4072,1.0925,0.7055,-9.4258,2.613,-0.2812,-7.0254,-2.2415,-0.8077,1.2256,-0.1934,18.65,46.47,10.6,331.68,70.4,-13.28,82526,2016-03-24 21:24:23:759
4.2652,-2.5586,-13.3195,1.3889,-9.5683,1.6396,3.0284,5.7516,-11.8562,-0.5684,1.7976,-0.5415,16.89,45.22,18.35,357.75,77.34,-40.27,82625,2016-03-24 21:24:23:858
-1.1627,-10.8352,2.6732,2.7486,-9.3446,1.1377,-2.8902,0.2848,-0.7669,-1.3686,3.2241,-2.524,11.49,46.09,21.35,25.9,72.34,-67.51,82726,2016-03-24 21:24:23:959
-2.6357,-13.2887,-0.9295,4.2214,-8.8139,0.8163,-6.0744,-10.2773,1.3647,-0.1018,0.1167,-1.6127,-6.1,42.76,32.51,60.85,65.34,-78.27,82826,2016-03-24 21:24:24:059
-1.356,-6.5405,-0.2551,3.3609,-9.1557,1.0233,-6.5431,-3.107,-0.2415,0.6802,-1.3289,1.1158,-13.77,41.55,32.79,72.1,69.01,-73.07,82926,2016-03-24 21:24:24:159
-0.0017,-1.1663,-3.8391,0.7343,-9.378,2.7721,-1.0581,5.0301,-3.6203,1.766,-1.2136,2.4712,3.31,45.87,27.55,6.08,73,-14.84,83026,2016-03-24 21:24:24:259
1.3744,-11.6411,-2.7212,0.1486,-9.1925,3.4125,0.6824,5.2755,-7.3946,1.4162,-0.23,1.6458,11.12,47.29,22.65,352.83,73,-14.84,83125,2016-03-24 21:24:24:358
1.0549,-14.1417,-0.3663,0.8568,-9.2275,3.2078,-2.0497,-10.7157,0.3377,-0.161,-1.6367,-0.1279,17.02,45.67,14.5,338.44,70.21,-14.95,83226,2016-03-24 21:24:24:459
1.0126,-9.4419,0.2176,0.8394,-9.3891,2.7038,0.0948,-6.2763,-2.6495,-0.6776,0.9652,-0.2505,16.69,45.9,13.41,337.57,73.22,-17.25,83326,2016-03-24 21:24:24:559
2.9288,-4.1972,-12.3104,1.6893,-9.4865,1.8229,1.9415,6.1135,-8.2987,-0.8713,2.7355,-1.3583,12.38,46.43,20.75,9.03,75.32,-42.82,83425,2016-03-24 21:24:24:658
-0.704,-7.9311,4.165,4.125,-8.8307,1.0831,-3.6592,-2.4022,3.6517,-1.3775,0.6078,-2.4179,-2.39,45.15,28.6,44.5,70.68,-60.55,83525,2016-03-24 21:24:24:758
-3.1962,-10.485,-0.474,4.2616,-8.8007,0.7461,-7.1464,-10.1525,-0.1247,-0.1352,-0.8246,-0.639,-10.18,42.33,32.05,66.23,63.82,-80.07,83626,2016-03-24 21:24:24:859
-2.5729,-10.2539,0.3009,2.2561,-9.4421,1.3885,-4.6205,-2.1834,-0.5204,1.7349,-2.8722,2.116,-1.03,43.49,31.04,56.31,69.54,-77.64,83726,2016-03-24 21:24:24:959
-2.0724,-3.4134,-5.9874,1.0023,-9.4474,2.4317,-1.7323,4.6678,-2.5759,1.8063,-1.0635,2.2536,7.88,45.73,25.92,3.74,74.44,-22.4,83826,2016-03-24 21:24:25:059
0.9089,-13.7018,0.4677,0.6786,-9.3425,2.9029,0.8787,-1.071,-3.3398,0.9286,-0.8092,1.2769,14.71,45.56,19.6,338.53,72.85,-4.76,83926,2016-03-24 21:24:25:159
0.7425,-15.1039,0.1505,1.1182,-9.3993,2.5638,0.613,-9.8712,0.634,-0.558,-0.1238,-0.6062,21.26,45.66,10.5,334.28,73.43,-23.56,84026,2016-03-24 21:24:25:259
-0.2518,-6.3703,0.1675,1.3218,-9.6381,1.2373,-1.6416,-3.0681,-0.1115,-1.1067,0.8618,-0.4862,17.41,46.3,18.63,352.88,77,-32,84126,2016-03-24 21:24:25:359
1.9535,-2.1904,-2.0546,1.6474,-9.586,1.2511,-1.3183,5.5667,-0.2054,-0.0635,2.0751,-0.7608,14.48,45.28,21.92,15.17,77.82,-52.79,84226,2016-03-24 21:24:25:459
-2.8226,-9.939,3.0546,3.6822,-9.055,0.7868,-5.8118,-1.89,2.0578,-1.1851,-0.3975,-1.6167,-0.46,46.49,27.59,49.89,67.42,-77.94,84325,2016-03-24 21:24:25:558
-2.3927,-12.4524,-1.8903,3.7383,-9.0466,0.5957,-4.7496,-10.7741,3.5137,0.327,-0.2736,0.0512,-6.73,43.69,30.55,62.48,67.42,-77.94,84426,2016-03-24 21:24:25:659
-2.6904,-9.2076,0.9898,2.1609,-9.5208,0.9253,-4.6244,-1.002,0.2439,1.0044,-2.1361,1.9263,1.37,44.27,29.86,53.12,70.76,-77.04,84526,2016-03-24 21:24:25:759
0.2165,-3.1936,-0.5341,1.2491,-9.5715,1.7312,-1.5792,5.7684,-1.5342,1.7382,-1.7983,1.584,9.03,44.36,25.97,12.64,77.43,-35.81,84626,2016-03-24 21:24:25:859
-2.3394,-19.4222,0.7458,1.0434,-9.1106,3.4753,-1.6313,-2.8096,-7.146,-0.2823,-0.37,-0.2064,17.9,46.71,10.93,335.31,70.83,-17.13,84726,2016-03-24 21:24:25:959
2.0388,-14.6163,1.2613,1.2346,-9.3073,2.832,-3.2218,-9.6403,-1.4702,-0.8492,-1.0261,-0.1614,19.82,45.93,9.7,335.02,71.64,-23.55,84826,2016-03-24 21:24:26:059
0.1183,-7.3222,0.9251,1.4293,-9.6037,1.3769,-0.0912,-4.566,-0.7679,-1.1853,1.5881,-0.6844,16.48,46.84,16.04,0.77,78.32,-46.07,84926,2016-03-24 21:24:26:159
-2.6348,-7.4142,2.5594,2.2365,-9.4771,1.1635,0.6952,6.0073,-9.0607,-1.0743,6.2834,-2.4847,13.44,45.85,22.09,11.54,78.32,-46.07,85026,2016-03-24 21:24:26:259
0.4246,-9.6271,3.3009,4.763,-8.5427,0.7122,-3.6004,0.7327,4.1221,-0.802,1.9186,-2.2784,-6.51,45.45,30.4,57.01,60.59,-81.5,85126,2016-03-24 21:24:26:359
0.6135,-15.107,-2.9119,4.7937,-8.5413,0.487,-7.1622,-10.4107,-0.8478,0.0406,-1.9138,1.5073,-15.65,40.51,31.62,72.89,60.59,-81.5,85225,2016-03-24 21:24:26:458
-1.8696,-6.5482,-0.3298,2.7255,-9.3772,0.8999,-6.1735,-3.0597,0.2589,1.3996,-2.4531,1.6619,-6.35,43.19,31.98,62.59,72.98,-71.73,85326,2016-03-24 21:24:26:559
-1.2583,-2.3094,-6.9557,1.42,-9.4839,2.052,-2.5789,3.6442,-2.3,1.629,-1.1899,2.2275,0.54,46.65,27.66,23.49,75.26,-34.68,85426,2016-03-24 21:24:26:659
1.3017,-14.7328,1.4824,0.5536,-9.3662,2.8527,1.1078,0.5813,-4.6112,0.4166,-0.8649,1.0115,15.12,46.67,18.29,339.63,73.26,-8.57,85526,2016-03-24 21:24:26:759
1.344,-16.2203,0.6162,1.1522,-9.4283,2.4393,0.0422,-9.7908,-0.8408,0.0272,0.1009,-0.3395,18.03,46.25,9.34,335.96,74.03,-25.28,85626,2016-03-24 21:24:26:859
-0.4056,-5.2713,0.6336,1.2018,-9.5814,1.7094,-0.6057,-3.2688,-1.2587,-1.5121,2.0363,-0.4599,17.37,46.95,12.12,341.34,74.03,-25.28,85726,2016-03-24 21:24:26:959
6.9752,-0.924,-18.3455,2.1314,-9.4155,1.725,0.4886,4.0366,-11.7416,0.3762,2.9831,-1.1284,12.44,45.92,22.6,3.92,76.92,-32.94,85825,2016-03-24 21:24:27:058
-0.6653,-13.5683,5.0428,3.6587,-9.0337,1.0852,-4.06,-0.6764,1.8109,-1.4672,0.0938,-2.8384,4.4,46.56,25.85,39.72,67.1,-73.48,85926,2016-03-24 21:24:27:159
-1.4481,-10.6135,-4.0924,3.3378,-9.1208,1.357,-4.7758,-4.9559,-3.9747,0.4076,0.3935,0.7767,-13.38,42.53,31.41,63.74,64.47,-71,86026,2016-03-24 21:24:27:259
-0.1421,-4.3454,0.8072,2.3554,-9.4393,1.2333,-4.1927,-3.6415,0.2524,0.4631,-3.2091,1.8891,-10.72,43.48,31.66,63.65,74.27,-62.36,86126,2016-03-24 21:24:27:359
-2.5421,-0.0487,-4.1654,0.4705,-9.2371,3.2596,-1.9233,7.9319,-4.4159,2.1463,-0.7262,1.6837,7.96,44.6,24.55,13.85,74.83,-37.31,86227,2016-03-24 21:24:27:460
-3.6224,-19.4222,5.1434,0.4041,-9.2174,3.3235,0.2256,5.619,-6.4074,0.5429,0.1737,0.6416,13.14,46.05,18.6,343.78,70.38,-8.21,86325,2016-03-24 21:24:27:558
-0.6931,-13.2889,-0.4225,0.9739,-9.3085,2.9282,-1.5457,-7.2865,-0.5747,0.0304,-0.2589,0.208,16.15,46.47,13.81,341.34,71.66,-18.4,86426,2016-03-24 21:24:27:659
5.3399,-1.266,-7.8491,0.9391,-9.4856,2.3047,-0.952,-3.7382,-1.8912,-1.1895,1.9564,-0.4428,15.72,46.59,14.37,341.51,71.66,-18.4,86526,2016-03-24 21:24:27:759
-0.6499,-7.9356,3.1038,2.4665,-9.3057,1.8685,-2.3507,2.0359,-3.2597,-1.3179,3.1271,-2.4783,5.54,45.62,23.95,25.3,71.61,-52.85,86626,2016-03-24 21:24:27:859
-6.2081,-19.4222,-2.3563,4.0091,-8.8784,1.1275,-3.3015,0.3689,3.0002,-1.2919,-0.1162,-2.67,-3.72,45.07,28.26,42.26,71.61,-52.85,86726,2016-03-24 21:24:27:959
-2.6286,-14.8879,1.7375,3.1455,-9.2441,0.9074,-4.8405,-5.3367,-1.9805,0.7056,-2.0559,1.902,-12.67,40.73,33.5,69.5,64.02,-77.26,86826,2016-03-24 21:24:28:059
-0.3975,-6.1446,0.5855,1.8704,-9.5409,1.2817,-4.055,-5.1039,0.0626,1.1498,-2.5896,2.3177,-4.08,42.23,33.4,50.1,76.63,-55.58,86929,2016-03-24 21:24:28:162
1.3546,-4.4456,-3.7985,0.1857,-9.0808,3.698,-1.2658,5.7518,-8.2433,1.7238,-0.6808,1.5218,11.93,45.45,22.36,343.98,67.82,-2.88,87027,2016-03-24 21:24:28:260
-0.0857,-19.4222,1.5527,0.3501,-9.0999,3.6386,1.0672,2.6168,-8.1863,-0.1602,-2.6718,0.3352,16.52,46.19,17.59,335.21,67.82,-2.88,87126,2016-03-24 21:24:28:359
0.3083,-13.9348,0.2851,0.8969,-9.3449,2.8352,0.5066,-9.6846,-1.0375,-0.8207,0.746,-0.0989,20.77,45.42,11.01,330.62,72.35,-17.55,87227,2016-03-24 21:24:28:460
-0.253,-3.4305,2.4565,0.9274,-9.5339,2.1013,-0.4199,-4.92,-1.5389,-1.3062,1.2226,-0.4439,18.82,45.24,14.98,337.45,72.35,-17.55,87326,2016-03-24 21:24:28:559
-1.4922,-6.0964,-0.0794,1.9199,-9.4452,1.8091,-0.2206,4.9007,-9.2867,-1.1859,0.0241,-2.4002,10.68,44.86,24.39,0.52,76.54,-25.33,87426,2016-03-24 21:24:28:659
-4.7964,-19.4222,0.2786,3.4023,-9.134,1.0789,-4.404,1.2281,3.2186,-1.0365,0.5249,-2.3588,3.59,44.25,28.71,43.63,68.66,-72.41,87526,2016-03-24 21:24:28:759
-3.9245,-12.8052,2.9995,2.8856,-9.2512,1.5028,-3.9075,-5.3423,-1.8109,1.1316,-1.8948,1.3492,-6.47,43.43,30.91,57.18,67.44,-71.75,87626,2016-03-24 21:24:28:859
2.8684,2.7346,-11.9162,0.0436,-9.2092,3.3704,-0.4972,4.6322,-3.454,2.2195,2.0477,2.4619,7.93,46.49,23.34,348.4,69.9,-0.74,87726,2016-03-24 21:24:28:959
2.4672,-6.7165,-2.6637,-0.8765,-9.0463,3.6834,3.8458,9.2351,-12.8693,-0.4951,-1.7656,0.7859,15.94,46.64,19.22,327.86,67.29,13.38,87827,2016-03-24 21:24:29:060
0.1392,-11.4308,0.342,-0.2245,-9.2608,3.2182,2.5313,-0.6188,-5.0352,-0.8618,-3.2751,-0.6558,17.65,44.54,18.45,327.86,70.79,3.99,87926,2016-03-24 21:24:29:159
-0.6173,-8.6011,1.002,0.394,-9.5337,2.2636,-0.8753,-3.9874,-1.1955,-1.2163,1.9625,-0.4397,19.42,44.43,18.09,332.57,73.43,-7.24,88027,2016-03-24 21:24:29:260
9.5517,0.0614,-16.5572,0.8905,-9.4534,2.4518,-2.2356,-4.1973,0.6376,0.1293,2.3188,-0.6828,17.1,43.28,20.99,339.15,78,-11.78,88126,2016-03-24 21:24:29:359
-2.9004,-7.5452,4.7235,2.1661,-9.1652,2.7346,-2.2082,2.0761,-2.9904,0.8251,6.2846,-2.683,11.87,45.73,23.54,7.65,69.16,-38.38,88226,2016-03-24 21:24:29:459
-3.271,-12.2276,-6.0355,3.2714,-9.05,1.8884,-9.3978,-10.9534,-0.7413,-0.5379,-0.6478,-1.1196,-8.9,45.77,26.85,50.5,67.35,-60,88326,2016-03-24 21:24:29:559
-2.1315,-10.7991,0.4163,2.3381,-9.3676,1.7183,-4.4177,-3.9229,-4.4534,0.5735,-0.3063,1.6432,-12.5,44.02,29.21,57.76,67.35,-60,88426,2016-03-24 21:24:29:659
0.4347,-1.0047,0.7408,0.385,-9.5017,2.3957,-0.3557,5.4204,-0.838,0.7341,-2.9203,2.2128,4.74,44.92,29.16,359.52,75.67,-9.13,88526,2016-03-24 21:24:29:759
2.5054,-8.2218,-3.1625,-0.6697,-9.0443,3.7313,1.5065,6.6149,-2.9209,2.3237,-0.3171,1.6533,14.92,43.98,24.64,332.76,67.26,10.17,88625,2016-03-24 21:24:29:858
-0.1917,-9.3725,0.6981,0.1186,-9.1044,3.6423,0.39,-10.8701,-4.8717,-0.2472,-0.5686,-1.464,20.21,45.07,14.9,324.04,63.61,9,88726,2016-03-24 21:24:29:959
-2.1071,-10.8085,2.712,0.6108,-9.4766,2.4476,-0.7088,-4.5363,-2.1402,-1.9006,-0.8099,-0.5113,16.18,46.39,17.16,340.1,75.09,-14.01,88826,2016-03-24 21:24:30:059
5.4311,-2.0355,-12.76,0.9713,-9.5851,1.8309,0.7164,7.0344,-1.8583,-0.486,2.893,-0.6268,14.21,43.23,23.72,1.95,79.45,-32.72,88927,2016-03-24 21:24:30:160
-1.0942,-10.3991,2.5897,1.7874,-9.359,2.3204,-1.2538,2.0342,-9.2177,0.4815,5.4942,-1.8266,8.78,44.18,26.88,7.29,77.8,-27.94,89026,2016-03-24 21:24:30:259
-2.4142,-11.1181,0.7139,3.0133,-9.2489,1.2444,-6.0261,-8.3299,-2.5078,-0.8607,-0.1158,-0.3675,-11.91,43.8,29.84,56.75,68.27,-59.3,89126,2016-03-24 21:24:30:359
-0.5882,-7.9941,0.4444,2.0077,-9.5389,1.0717,-4.0509,-2.8513,-0.0919,0.1632,-2.4247,1.7524,-11.89,41.2,32.08,67.73,76.58,-61.91,89226,2016-03-24 21:24:30:459
-1.4984,-9.4438,-8.3599,0.4382,-9.2833,3.1302,-0.1168,4.468,-2.0976,2.4363,-2.1321,1.4938,6.11,42.91,30.16,357.61,71.2,-7.97,89326,2016-03-24 21:24:30:559
-2.1529,-15.4225,-8.1587,0.1944,-8.8057,4.3119,-1.2934,0.6168,-8.4239,2.3187,-1.0928,0.8572,11.77,45.48,22.61,345.02,63.89,-2.58,89427,2016-03-24 21:24:30:660
3.1474,-16.0798,1.4905,0.4744,-9.1817,3.412,-0.609,-8.0958,-6.1847,-0.807,-1.3161,0.027,17.22,46.12,12.56,333.67,69.43,-7.92,89526,2016-03-24 21:24:30:759
-0.1117,-7.0654,0.6865,0.577,-9.5995,1.9201,-0.2163,-3.7163,-0.8843,-1.3072,1.308,-0.3991,18.16,45.57,16.76,337.91,78.2,-16.73,89626,2016-03-24 21:24:30:859
3.8672,-0.3643,-7.5624,0.5726,-9.6195,1.8187,1.6227,7.1222,-4.9434,-0.4093,5.8681,-0.94,15.63,44.79,21.52,345.32,78.2,-16.73,89726,2016-03-24 21:24:30:959
0.0603,-8.8436,2.0874,2.8735,-9.2625,1.4554,-3.2435,0.0259,1.7267,-0.7871,0.6564,-2.5222,-1.42,45.39,28.01,44.49,70.82,-63.14,89826,2016-03-24 21:24:31:059
1.5783,-14.3195,-3.98,3.1581,-9.2031,1.2245,-4.1153,-11.1718,-0.8002,-0.2835,-0.2851,-0.2352,-10.4,44.1,29.33,58.8,70.82,-63.14,89926,2016-03-24 21:24:31:159
-1.4539,-7.6324,0.0822,1.2643,-9.5915,1.6046,-4.4036,-2.1655,0.1857,1.2961,-1.7959,2.2743,-4.43,44.51,30.28,55.03,74.14,-66.35,90026,2016-03-24 21:24:31:259
-0.0894,-0.7714,-3.0236,-0.0467,-9.4395,2.6579,-0.3125,3.7475,-2.8661,1.7703,-0.7245,2.2529,3.79,45,26.28,353.16,74.27,1.01,90126,2016-03-24 21:24:31:359
-1.1935,-17.333,0.6194,-0.4747,-9.2688,3.1676,1.9816,1.4223,-5.2038,-0.273,-2.1955,-0.3436,16.14,44.81,18.44,327.73,70.94,8.52,90226,2016-03-24 21:24:31:459
-0.9964,-15.5106,1.4816,0.2481,-9.3508,2.9446,-1.2793,-9.4863,-1.7361,-0.0924,-1.6745,-0.4939,15.95,46.65,16.9,335.32,72.46,-4.82,90326,2016-03-24 21:24:31:559
-0.2824,-6.8929,1.1145,0.3083,-9.5906,2.0237,-1.1945,-3.9766,-0.6925,-0.7076,1.9753,-0.3524,13.29,45.92,19.38,341.52,77.95,-8.66,90426,2016-03-24 21:24:31:659
5.8553,-2.7297,-9.7416,0.2807,-9.5792,2.0808,2.2954,5.5239,-4.2868,0.514,4.0472,-0.7303,10.99,45.98,22.86,346.87,77.64,-7.68,90526,2016-03-24 21:24:31:759
-1.8158,-11.3125,3.0604,2.7211,-9.3483,1.1729,-3.9505,-1.2641,0.6736,-1.299,0.516,-2.4522,-4.76,45.05,26.86,31.67,76.75,-31.95,90626,2016-03-24 21:24:31:859
-3.6932,-13.3136,-0.6848,3.185,-9.2219,0.9914,-5.5162,-8.8278,4.4249,-0.2953,1.2469,0.0684,-13.03,42.39,30.37,71.31,70.11,-72.71,90726,2016-03-24 21:24:31:959
0.1376,-7.1918,1.2298,1.2742,-9.6887,0.8218,-2.8243,-2.8039,-0.196,0.6212,-4.114,2.1315,-3.47,42.87,32.28,53.25,81.11,-57.18,90826,2016-03-24 21:24:32:059
-0.3967,-1.9364,0.5691,0.7693,-9.6308,1.6814,-0.5498,2.4866,-0.445,0.6212,-4.114,2.1315,-3.47,42.87,32.28,53.25,81.11,-57.18,90926,2016-03-24 21:24:32:159
-0.1772,-19.4222,-6.8395,1.0399,-8.7292,4.3463,-4.3349,-0.3097,-8.1641,2.963,-1.0445,0.3316,13.33,47.12,20.44,349.1,69.62,-15.33,91026,2016-03-24 21:24:32:259
-0.9865,-14.8636,1.1149,1.0125,-8.8058,4.1955,-1.4838,-9.5606,-8.3809,1.0774,-1.0451,0.0382,15.17,46.28,11.5,341.1,62.89,-13.46,91126,2016-03-24 21:24:32:359
0.6082,-5.7855,1.1049,0.393,-9.4463,2.6043,-0.8222,-6.3357,-1.1236,-1.5035,1.6208,0.2602,15.34,46.35,15.82,340.21,69.05,-9.76,91226,2016-03-24 21:24:32:459
5.3951,-0.1831,-3.3749,0.6963,-9.4984,2.338,0.3569,5.7316,0.7859,-1.0124,0.0802,-0.3109,15.27,45.15,22.2,347.24,75.6,-16.58,91326,2016-03-24 21:24:32:559
-1.368,-7.5863,1.4454,2.8522,-8.9504,2.8154,-2.511,1.085,-4.5275,0.2919,3.5424,-2.8498,7.53,45.62,25.85,17.58,65.88,-45.37,91427,2016-03-24 21:24:32:660
0.2442,-11.5982,-2.2508,2.9698,-9.0107,2.4817,-6.4756,-8.44,3.2282,-1.1822,-0.6773,-1.9842,-5.89,44.71,27.97,40.15,66.76,-50.12,91527,2016-03-24 21:24:32:760
-0.7558,-4.4084,-0.2962,1.2933,-9.2313,3.0465,-3.8166,-3.6998,-2.8514,0.9016,-1.8379,1.4603,-9.88,43.61,30.58,29.27,70.28,-23,91627,2016-03-24 21:24:32:860
-0.4464,-1.6389,-3.5961,0.315,-8.9525,3.9906,-1.408,2.4058,-3.6697,1.4054,-1.9071,2.3194,-3.19,45.05,29.36,19.77,70.28,-23,91726,2016-03-24 21:24:32:959
-0.4936,-19.0771,1.6839,-0.4057,-8.5031,4.8686,2.2765,2.6817,-6.5354,0.3161,-1.1031,0.9824,13.18,46.49,19.46,339.27,60.12,4.76,91826,2016-03-24 21:24:33:059
0.5552,-16.7318,1.3497,0.7199,-8.5826,4.6894,-0.4025,-9.621,-3.4406,-0.1835,-2.6245,-0.8029,17.78,45.96,16.56,331.95,60.12,4.76,91926,2016-03-24 21:24:33:159
0.1857,-6.633,-0.156,0.5279,-8.9916,3.8785,-1.5017,-5.8002,-1.9068,-1.1071,2.2291,-0.5175,15.54,46.66,14.47,340.29,62.24,-10.63,92026,2016-03-24 21:24:33:259
0.692,-2.0433,0.3494,0.6929,-9.3644,2.8281,1.3006,5.4024,-7.8006,-1.1584,1.4572,-0.4961,12.05,46.26,19.66,346.41,66.48,-7.75,92128,2016-03-24 21:24:33:361
-1.5086,-13.4081,5.8022,1.5881,-9.4274,2.1848,-2.0955,-0.5058,-6.6607,-1.4769,3.5607,-2.2566,5.46,45.68,25.47,1.65,72.73,-13.77,92225,2016-03-24 21:24:33:458
-2.9336,-12.8282,-2.6037,2.7243,-9.2265,1.9029,-4.1976,-6.3843,-3.1388,0.2333,-0.3074,-0.1672,-14.13,40.67,32.45,59.3,70.19,-55.07,92326,2016-03-24 21:24:33:559
-1.197,-8.8505,0.2561,1.9448,-9.4238,1.8921,-5.8355,-2.291,-0.8189,0.5911,-2.7929,1.7384,-12.61,41.72,32.06,57.51,70.19,-55.07,92426,2016-03-24 21:24:33:659
-0.5197,-2.4144,0.0207,1.074,-8.9367,3.8925,-0.781,4.4847,-3.3347,2.6553,-2.4473,1.1128,5.6,43.48,28.77,9.63,73.62,-24.86,92526,2016-03-24 21:24:33:759
-0.2192,-12.6722,0.1332,1.0778,-8.5282,4.7201,-3.3864,1.71,-9.033,1.4191,-0.6671,0.3438,12.01,45.97,20.9,351.56,65.68,-15.42,92626,2016-03-24 21:24:33:859
0.3894,-18.2509,0.3658,1.2831,-8.4496,4.8093,1.1097,-7.8805,-6.1313,-0.2678,0.9398,-0.2709,13.86,47.47,14.51,346.12,58.85,-14.44,92726,2016-03-24 21:24:33:959
-0.416,-8.2797,0.6526,1.1655,-8.8367,4.0896,-0.6154,-7.7045,-3.8199,-1.3041,0.5142,-0.3003,12.4,47.89,17.97,350.48,64.3,-15.91,92826,2016-03-24 21:24:34:059
1.1308,-3.7969,1.4086,1.4986,-9.2884,2.7657,-1.8425,4.046,-1.2548,-0.6836,0.481,-0.3982,10.37,45.92,24.52,4.45,71.29,-28.45,92926,2016-03-24 21:24:34:159
-4.396,-10.5465,0.5267,2.5296,-9.2366,2.1113,2.4248,2.4111,-12.1172,-1.4693,1.7511,-2.6713,9.29,45.07,26.07,6.36,71.29,-28.45,93026,2016-03-24 21:24:34:259
-2.1786,-10.2616,-1.4638,3.6159,-8.9422,1.7699,-4.5993,-8.7428,2.0459,0.2977,0.0741,0.5237,-11.43,40.46,34.36,59.62,65.49,-64.68,93126,2016-03-24 21:24:34:359
-0.5085,-8.5369,0.5814,2.8028,-9.2067,1.8844,-4.8421,-1.5606,-2.5748,0.9101,-2.7324,1.9621,-10.16,41.39,34.46,54.46,69.86,-56.08,93226,2016-03-24 21:24:34:459
-3.0205,-3.5771,-3.9316,2.1689,-8.8856,3.5372,-1.9483,3.3603,-2.7879,3.466,-2.7161,0.4861,9.6,44.46,26.76,15.56,71.62,-42.59,93326,2016-03-24 21:24:34:559
2.5661,-12.1239,-3.7708,2.2392,-8.4731,4.4004,-5.9241,2.1056,-9.3454,0.7711,-0.5556,0.6683,12.1,46.87,15.12,356.32,64.97,-31.51,93426,2016-03-24 21:24:34:659
0.5164,-17.8429,0.7777,2.1321,-8.7248,3.9372,1.1777,-7.1842,-6.3661,-1.0941,0.8335,0.1316,13.01,49.22,12.4,350.63,60.1,-26.11,93525,2016-03-24 21:24:34:758
0.0786,-9.1158,0.2072,1.8464,-9.0728,3.2319,-1.1106,-9.4628,-2.3631,-1.2626,0.5989,0.0899,12.1,46.43,15.79,355.66,62.83,-28.44,93626,2016-03-24 21:24:34:859
0.7528,-2.8643,2.7101,1.9066,-9.4783,1.6424,-1.2201,4.5129,-0.7096,-1.3214,-0.8612,0.1454,12.91,47.14,20.03,2.31,72.23,-36.61,93726,2016-03-24 21:24:34:959
-2.3285,-15.2887,5.6562,3.3516,-8.8191,2.676,-3.1101,-3.0302,-7.7374,-0.3606,9.9567,-2.9082,13.76,44.26,26.42,14.85,64.07,-51.39,93826,2016-03-24 21:24:35:059
-3.2666,-9.6832,-1.0853,3.8502,-8.6807,2.4478,-4.4544,-11.6717,2.7958,-0.977,-1.1132,-2.5296,-9.32,44.16,31.05,44.55,64.07,-51.39,93926,2016-03-24 21:24:35:159
-2.3806,-11.6248,0.9897,2.8143,-9.0585,2.4888,-5.2543,-3.3829,-1.2528,0.779,-3.1795,1.5467,-10.36,43.28,30.31,48.35,64.79,-54.21,94026,2016-03-24 21:24:35:259
-2.2451,-2.3655,-3.4479,2.4904,-8.8821,3.3281,-2.3348,1.766,-2.6053,1.6125,-3.2639,1.9995,-1.75,44,32.55,36.14,67.47,-48.51,94125,2016-03-24 21:24:35:358
-1.125,-13.7887,-0.4068,2.3411,-8.6151,4.0583,-2.2599,-1.7334,-5.4688,0.5766,-0.8127,0.5558,12.9,48.26,17.66,357.29,61.34,-30.65,94226,2016-03-24 21:24:35:459
0.1091,-17.478,0.751,2.4772,-8.7006,3.786,-3.6177,-6.6013,-2.1411,-0.0455,-0.4815,-0.021,15.13,46.26,11.42,348.53,61.46,-29.98,94326,2016-03-24 21:24:35:559
0.8486,-9.4747,0.2347,2.3281,-9.1791,2.5484,-1.2616,-0.2568,-1.9756,-1.0943,0.2532,0.2583,13.04,48.32,14.09,357.21,65.47,-37.43,94426,2016-03-24 21:24:35:659
-0.2009,-3.9747,0.758,2.4146,-9.3038,1.9442,-1.7483,3.2927,-1.094,-1.0448,-0.1971,-0.0477,14.83,46.28,17.79,7.23,71.57,-51.16,94527,2016-03-24 21:24:35:760
2.1515,-10.3663,-18.0465,3.1825,-9.0878,1.8587,-0.6306,-0.9671,-14.6487,-0.8618,4.3475,-1.5712,11.38,44.52,24.26,14.13,70.57,-45.96,94626,2016-03-24 21:24:35:859
-3.8351,-15.4684,-2.0018,4.3425,-8.6734,1.4439,-4.8397,-7.8971,5.9914,-1.8926,0.5182,-2.6482,-2.27,44.27,31.26,47.53,62.18,-71.61,94727,2016-03-24 21:24:35:960
-3.29,-10.366,1.7667,3.5121,-9.0371,1.4719,-6.6719,-1.0744,-0.6771,0.6393,-2.0296,1.4988,-12.4,41.38,33.89,63.65,67.15,-67.26,94826,2016-03-24 21:24:36:059
0.3504,-2.7159,0.8736,2.6999,-9.2442,1.8507,-3.9454,-1.6387,-1.0129,1.4618,-2.8784,1.9028,-4.92,42.92,33.5,53.21,67.15,-67.26,94926,2016-03-24 21:24:36:159
-1.5767,-13.8632,0.8506,2.6763,-8.5688,3.9476,-4.2616,1.293,-6.5712,2.1832,-0.6951,0.1077,12.25,46.21,21.08,2.44,60.9,-34.14,95026,2016-03-24 21:24:36:259
1.2769,-8.5242,-2.1116,2.1693,-8.5579,4.2692,-4.0564,-5.6322,-4.2907,0.4753,1.0197,0.2406,14.65,48.18,13.72,350.09,60.77,-26.94,95126,2016-03-24 21:24:36:359
1.3189,-11.4534,-0.0631,2.5778,-8.8347,3.3873,0.0511,-7.2701,-3.4304,-0.898,-0.1416,-0.3029,14.48,47.52,12.72,355.06,64.27,-37.27,95226,2016-03-24 21:24:36:459
1.433,-6.3781,1.293,2.3401,-9.0328,3.0171,-1.1447,-1.3913,-1.9844,-1.129,1.9495,-0.2746,14.33,47.54,14.18,356.14,67.09,-37.8,95326,2016-03-24 21:24:36:559
1.4609,-5.1477,-0.9124,2.555,-8.9419,3.1119,0.6076,3.9746,-11.0382,-0.7276,1.8665,-1.8414,4.32,46.84,23.57,17.49,65.76,-39.39,95426,2016-03-24 21:24:36:659
-0.8884,-10.56,1.7697,3.9141,-8.5674,2.7294,-2.6157,0.9379,-0.1245,-0.7249,0.4157,-2.5571,-4.7,45.62,26.9,37.75,60.88,-55.11,95525,2016-03-24 21:24:36:758
-2.5822,-12.8361,2.9182,4.1394,-8.5804,2.3265,-5.735,-9.918,-2.7173,-0.168,-1.9099,0.6673,-14.85,43.12,29.06,51.8,57.97,-56.92,95626,2016-03-24 21:24:36:859
-1.3621,-5.2092,0.9739,3.6931,-8.9036,1.8049,-5.3102,-4.4588,0.0787,0.5892,-3.0805,1.4764,-9.71,42.71,30.28,55.15,65.22,-63.95,95726,2016-03-24 21:24:36:959
0.3484,-0.4944,-0.9766,2.0243,-9.1382,2.9267,-4.1612,6.8325,-7.9498,0.7859,-0.9731,2.2922,7.97,46.13,24.57,10.79,68.72,-34.67,95826,2016-03-24 21:24:37:059
-3.1396,-19.4222,3.5402,1.5959,-9.3552,2.4704,0.3454,-1.4765,-3.1813,0.2692,-1.7124,0.1444,19.8,43.42,16.61,344.84,72.01,-27.55,95925,2016-03-24 21:24:37:158
-0.4274,-12.0795,-0.7527,1.4473,-9.3365,2.628,-2.7339,-6.1057,-1.8205,0.0908,2.2499,-0.2055,21.8,43.92,14.71,344.23,72.55,-32.86,96026,2016-03-24 21:24:37:259
0.4794,-4.9132,0.4879,1.1585,-9.39,2.5801,-0.1745,3.1008,-2.3015,0.1348,2.9356,-0.5982,16.42,45.57,21.69,351.8,73.24,-24.18,96127,2016-03-24 21:24:37:360
1.0986,-1.2518,-3.449,1.9298,-9.3128,2.3911,1.0801,7.1764,-7.2963,-0.9915,0.1884,-2.1972,9.14,44.88,25.61,3.56,73.24,-24.18,96226,2016-03-24 21:24:37:459
-5.6532,-19.4222,3.2361,3.5479,-8.9289,1.9639,-6.0185,-7.2581,-0.2186,-0.158,0.6407,0.1933,-6.5,42.01,30.58,49.76,67.28,-58.81,96326,2016-03-24 21:24:37:559
-2.0937,-9.8425,-0.9642,3.0682,-9.1082,1.9487,-5.6524,-6.9742,-1.3753,0.605,-1.6743,0.9867,-8.07,42.52,31.89,50.72,68.24,-57.58,96426,2016-03-24 21:24:37:659
-0.1494,-2.5104,0.0489,1.7245,-9.27,2.6952,-2.88,-0.756,-2.2636,2.0434,-2.7944,1.4649,6.56,44.93,28.62,24.54,71.3,-48.64,96526,2016-03-24 21:24:37:759
0.5706,-7.614,-1.6903,1.2119,-9.1113,3.4184,-1.7359,4.5915,-3.7379,2.0434,-2.7944,1.4649,6.56,44.93,28.62,24.54,71.3,-48.64,96625,2016-03-24 21:24:37:858
-0.4499,-14.3389,-0.4771,1.2059,-9.1531,3.3071,-2.2481,-5.8635,-2.3786,-0.2378,-1.12,-0.1341,17.83,45.47,14.46,338.33,68.77,-16.35,96726,2016-03-24 21:24:37:959
0.4878,-10.4715,0.6658,1.2484,-9.2026,3.1502,-1.2131,-8.3047,-1.707,0.3457,-0.4863,-0.1106,20.23,45.91,15.05,339.26,68.96,-20.03,96826,2016-03-24 21:24:38:059
-0.403,-5.0567,0.4879,1.1164,-9.5,2.1621,-1.1183,0.9384,-1.4399,-0.9212,0.9318,-0.0896,19.19,45.3,14.07,340.05,72.68,-23.27,96926,2016-03-24 21:24:38:159
-0.162,-5.8963,2.0091,1.2271,-9.5608,1.8046,-1.8322,3.2467,-0.9291,-0.8786,1.0462,-0.3519,18.36,45.54,18.31,352.16,77.14,-34.21,97026,2016-03-24 21:24:38:259
1.1188,-15.1086,6.5365,2.6361,-9.3679,1.2095,-3.7256,-6.2332,-6.6343,-1.6499,5.4063,-2.1856,8.32,45.21,26.16,23.87,76.21,-49.58,97126,2016-03-24 21:24:38:359
-3.5434,-9.5419,0.9351,3.0487,-9.2387,1.2334,-2.6586,-7.0272,5.1212,-0.8921,1.3118,-1.3332,-0.42,43.05,31.94,48.8,72.8,-65.35,97226,2016-03-24 21:24:38:459
-0.7937,-7.1946,0.1489,1.9341,-9.4612,1.7072,-3.976,-1.6067,-0.0874,0.9172,-2.0632,1.3954,-8.72,43.36,31.82,58.69,71.99,-62.44,97327,2016-03-24 21:24:38:560
-1.4635,-10.3252,-0.2526,1.3596,-9.4737,2.1381,-1.984,0.9917,-1.5693,0.9937,-2.4361,1.5741,-1.15,44.27,29.48,25.44,75.03,-32.45,97426,2016-03-24 21:24:38:659
-3.6331,-11.0104,-1.1035,1.4228,-8.582,4.5271,-3.6928,-3.6242,-6.09,2.6396,-0.2013,-0.138,12.23,46.47,17.23,352.93,66.93,-22.58,97536,2016-03-24 21:24:38:769
1.1456,-13.5369,0.7676,1.4536,-8.8,4.0765,-2.3793,-4.5911,-4.4453,-0.4662,-0.0033,0.055,13.45,47.72,13.07,347.22,61.06,-17.45,97626,2016-03-24 21:24:38:859
0.6225,-6.1056,0.8619,1.4447,-9.1943,3.0899,-0.3423,-1.3912,-3.2483,-0.6683,-0.1602,0.2147,15.15,47.33,14.52,348.33,69.65,-25.06,97726,2016-03-24 21:24:38:959
-1.0939,-6.6614,1.3068,1.5831,-9.5098,1.7969,-2.0841,2.1327,-0.0518,-0.8221,0.2708,-0.2351,16.76,44.31,21.17,356.4,74.06,-33.92,97826,2016-03-24 21:24:39:059
9.0837,-14.8072,2.3342,1.7634,-9.5326,1.48,-2.8254,-0.071,-0.7802,-0.7386,1.3277,-0.569,16.1,44.55,23.05,11.25,76.42,-49.99,97926,2016-03-24 21:24:39:159
-6.0971,-13.3815,9.5141,2.0188,-8.7016,4.0468,2.2389,-7.3734,-16.9037,0.9919,4.8774,-2.233,-0.67,46.2,26.71,23.53,69.1,-34.19,98026,2016-03-24 21:24:39:259
-1.3502,-9.4732,-1.1063,1.9549,-8.7686,3.9319,-6.8944,-4.7044,3.9108,-0.1988,-0.2263,0.0712,-12.46,46.08,26.65,31.02,62.54,-26.51,98127,2016-03-24 21:24:39:360
-0.1378,-5.9177,2.0004,1.1281,-9.0989,3.4796,-1.1721,-1.8078,-2.5142,0.5033,-3.3365,1.6778,-0.02,44.63,29.74,14.21,67.5,-21.31,98226,2016-03-24 21:24:39:459
-0.6537,-2.4453,0.0705,1.1424,-8.8186,4.1349,-1.162,1.722,-2.0299,1.382,-2.1682,0.9075,7.53,44.98,27.42,359.34,64.06,-15.44,98326,2016-03-24 21:24:39:559
-0.3172,-13.7908,-0.6438,0.4102,-7.8425,5.8734,-1.0726,-9.0626,-6.1714,1.2518,1.082,0.3046,14.8,46.41,16.06,341.43,53.1,-4,98426,2016-03-24 21:24:39:659
0.2016,-15.9785,2.1053,0.1727,-8.0305,5.626,0.1573,-10.0883,-5.5182,-0.4482,0.2567,-0.0073,14.67,47.23,13.35,340.38,53.1,-4,98526,2016-03-24 21:24:39:759
0.0083,-4.8881,0.5613,0.3183,-8.7287,4.4586,-0.3312,-0.0967,-3.5282,-0.9548,0.5111,-0.4278,13.54,47.93,18.47,342.17,59.1,-2.87,98626,2016-03-24 21:24:39:859
4.7757,-4.0256,-15.6665,-0.4043,-8.886,4.1286,0.1613,4.8489,-2.1773,-0.4703,5.7446,-0.6988,12.23,46.8,21.88,339.98,64.97,5.59,98726,2016-03-24 21:24:39:959
-0.5502,-18.9845,8.4607,1.5167,-9.3311,2.6078,-2.0174,-2.9914,-0.8163,-0.2701,1.5868,-2.5333,-4.65,44.62,30.82,28.31,72.08,-30.18,98826,2016-03-24 21:24:40:059
-4.2324,-10.7595,-3.2861,1.7486,-9.1788,2.9768,-2.1329,-10.7531,3.8303,0.4437,0.4537,0.1488,-15.65,40.7,31.29,44,72.08,-30.18,98925,2016-03-24 21:24:40:158
-0.1013,-3.7259,0.2266,0.7287,-9.2181,3.2658,-1.6415,-4.1954,-1.428,1.4721,-3.9331,1.8224,-1.1,43.85,32.52,10.26,70.05,-12.58,99026,2016-03-24 21:24:40:259
-2.8086,-1.0897,-3.1083,0.9502,-8.6736,4.4762,-0.9176,1.9294,-2.8168,2.7539,-3.1795,1.0235,8.3,46.54,26.48,357.04,70.05,-12.58,99127,2016-03-24 21:24:40:360
-3.4687,-19.4222,3.6406,1.5991,-7.758,5.7816,-3.5055,-10.9802,-9.6327,-0.1841,-1.0804,-0.1895,18.66,45.67,8.68,336.35,53.73,-12.91,99226,2016-03-24 21:24:40:459
-3.0242,-14.0282,1.0227,1.6063,-8.0013,5.4378,-3.9062,-8.287,-2.0635,-0.8701,1.9341,-0.8216,20.41,46.12,10.35,337.28,54.68,-16.46,99326,2016-03-24 21:24:40:559
0.6062,-4.9477,4.6708,0.606,-8.6359,4.607,-0.717,-1.6413,-1.4785,-1.9349,0.9203,0.5063,16.08,45.13,17.97,346.83,54.68,-16.46,99426,2016-03-24 21:24:40:659
1.6979,-3.6813,1.4681,0.5152,-8.4075,5.0219,4.3374,5.1486,-6.7553,1.4319,1.6566,0.0092,18.46,43.94,24.6,341.37,59.02,-5.86,99526,2016-03-24 21:24:40:759
-3.428,-15.056,3.1224,3.0556,-8.148,4.5215,-2.241,1.2671,-1.7304,-0.9968,0.2572,-3.5498,-1.37,46.66,28.57,12.13,58.52,-18.71,99626,2016-03-24 21:24:40:859
-3.8321,-16.4502,1.2973,2.6453,-8.5404,4.0292,-2.5689,-7.4565,-5.7,-0.0625,-1.5236,1.3203,-15.6,41.95,33.43,42.52,57.25,-38.5,99726,2016-03-24 21:24:40:959
-0.3789,-8.1541,-0.2223,1.5418,-8.6057,4.4425,-4.7669,-8.2022,-2.9407,1.248,-1.8252,2.6612,-10,44.07,30.47,32.69,60.56,-33.29,99826,2016-03-24 21:24:41:059
2.1531,-3.1117,-2.2923,-1.2405,-7.7639,5.8612,2.9826,4.7318,-8.8933,1.8583,1.0704,2.7012,9.7,46.43,23.07,346.59,57.33,1.22,99925,2016-03-24 21:24:41:158
4.21,-18.2873,-0.3634,-0.4242,-7.5376,6.259,5.0315,-4.7476,-3.929,0.3387,-2.305,1.1944,16.87,46.02,18.67,332.81,52.34,11.95,100026,2016-03-24 21:24:41:259
-1.4963,-11.3555,1.1308,0.0235,-8.5578,4.7889,-1.3079,-6.8063,-1.9974,-2.0583,1.4961,-0.9143,20.05,46.01,12.98,333.53,53.36,-3.05,100126,2016-03-24 21:24:41:359
-1.2141,-5.2016,-0.7414,-0.4203,-8.9115,4.0718,-1.6443,-2.256,-3.1469,-1.3116,2.9031,-0.5144,14.63,46.55,20.13,339.79,60.77,-0.28,100226,2016-03-24 21:24:41:459
-0.4844,-5.8148,1.2063,0.8588,-9.0088,3.7782,2.2334,7.5386,-12.2111,0.1523,-0.4048,-1.3426,7.01,45.67,26.45,350.04,65.26,1.11,100327,2016-03-24 21:24:41:560
-2.8949,-17.0909,5.7393,1.975,-9.044,3.2367,-2.0419,1.0149,-1.7971,-1.3432,1.4859,-2.3835,2,45.58,27.69,17.52,67.25,-31.39,100427,2016-03-24 21:24:41:660
-4.1822,-13.3804,2.1823,2.0763,-9.0019,3.2901,-2.6886,-8.8926,-3.143,0.5415,-0.7431,0.7574,-11.96,41.93,32.7,40.96,65.96,-37.78,100526,2016-03-24 21:24:41:759
-1.5297,-4.2752,-3.116,1.3829,-8.8647,3.9591,-5.256,-5.6946,-1.1199,1.4066,-1.8786,1.7298,-8.63,43.19,31.25,23.94,64.68,-19.25,100626,2016-03-24 21:24:41:859
-0.0862,-1.0322,-1.5016,-0.1669,-8.3735,5.1017,0.4934,5.4626,-5.77,0.676,-1.7889,2.162,6.52,45.74,23.84,350.02,58.63,1.87,100726,2016-03-24 21:24:41:959
-0.2453,-19.4222,1.4634,0.441,-8.3251,5.1642,1.2445,-5.096,-4.2693,0.2871,-2.8259,0.7346,14.84,45.21,20.87,342.85,58.09,-4.88,100826,2016-03-24 21:24:42:059
-0.7874,-11.7867,0.0098,1.1105,-8.5758,4.6252,-1.8069,-6.2665,-3.2261,-0.6456,1.5101,-0.5606,18.42,46.45,15,340.13,60.98,-13.5,100926,2016-03-24 21:24:42:159
-0.7525,-5.037,0.5338,0.8293,-8.9214,3.9864,-1.5896,-3.0877,-3.5115,-1.2299,1.6454,-0.3723,15.05,46.37,17.54,343.79,65.47,-11.75,101027,2016-03-24 21:24:42:260
3.3389,-2.0357,-8.5169,1.1482,-9.1933,3.2149,0.6659,7.0745,-2.8786,-0.6398,2.8979,-1.5085,11.15,45.15,25.56,354.09,69.11,-14.05,101126,2016-03-24 21:24:42:359
0.9078,-15.8136,4.7682,2.2144,-9.1353,2.795,-0.0034,4.6654,-8.2649,-1.1709,1.4407,-2.4129,2.94,45.06,27.86,21.31,68.68,-38.39,101226,2016-03-24 21:24:42:459
-4.1643,-12.9292,-1.614,2.3216,-9.0755,2.901,-2.745,-8.9173,-5.088,0.4323,-1.1777,0.8247,-9.07,43.13,31.39,38.25,67.74,-38.67,101326,2016-03-24 21:24:42:559
-0.8633,-6.3451,-0.5901,1.6452,-9.1709,3.0591,-5.5471,-5.2855,-3.5456,1.0261,-2.2583,2.0383,-5.54,43.52,31.71,27.49,69.26,-28.27,101426,2016-03-24 21:24:42:659
0.9228,-2.0891,-3.5455,-0.4482,-8.6736,4.5539,0.1497,6.951,-6.6774,1.5954,0.4561,1.8844,10.26,46.26,24.12,352.2,67.28,-10.09,101526,2016-03-24 21:24:42:759
0.0895,-19.134,0.3151,-0.7801,-8.4517,4.9122,2.2003,0.4684,-7.0042,0.2101,-1.6218,0.5892,14.76,45.07,19.98,334.61,59.52,9.02,101627,2016-03-24 21:24:42:860
-0.649,-10.5396,0.7637,0.4482,-8.6747,4.5519,-0.1389,-6.7166,-4.2622,-1.0902,0.0363,-0.5319,18.18,45.54,11.81,333.51,62.2,-5.62,101728,2016-03-24 21:24:42:961
-0.7889,-7.7787,1.1297,0.5308,-9.0861,3.6512,-1.0775,-2.9118,-2.2766,-1.5486,0.7975,-0.4067,16.89,45.79,15.34,336.85,62.2,-5.62,101826,2016-03-24 21:24:43:059
5.5384,-4.4757,-11.9276,0.2556,-9.3335,2.9985,-0.812,4.1997,-1.9735,0.6508,5.1792,-0.7843,13.95,44.12,24.84,342.86,72.13,-4.87,101927,2016-03-24 21:24:43:160
-0.8527,-16.441,7.5623,1.0312,-9.2575,3.0668,2.8345,4.7843,-9.1409,-0.9166,1.1906,-3.4138,5.25,45.8,26.82,5.41,70.74,-18.59,102026,2016-03-24 21:24:43:259
-4.2572,-11.0517,-4.173,1.9613,-9.1834,2.8266,-3.1857,-11.1078,4.2373,0.3648,-1.2417,1.263,-14.18,43.49,29.1,43.13,69.46,-34.76,102127,2016-03-24 21:24:43:360
0.5778,-2.1631,0.7597,0.4094,-9.4268,2.6716,-1.0179,-2.9597,-1.5302,-0.5543,-4.1666,2.7364,-7.31,44.76,28.45,27.58,74.01,-24.2,102226,2016-03-24 21:24:43:459
-0.21,-3.1829,-0.1227,0.3376,-8.9754,3.9368,-0.5843,7.0742,-3.2205,1.4618,-3.408,1.622,4.73,43.91,31.15,359.67,74,-8.71,102326,2016-03-24 21:24:43:559
0.8786,-16.6035,-1.8537,0.0213,-8.3691,5.1115,-0.3864,-11.5479,-6.5118,1.3514,1.0623,0.2365,18.11,45.16,14.48,333.75,59.21,-1.86,102427,2016-03-24 21:24:43:660
-1.5878,-13.4965,1.8226,0.2216,-8.7132,4.4947,-0.5035,-7.4904,-3.3554,-0.5206,-0.1669,-0.3929,18.84,46.07,10.8,330.45,58.58,-0.24,102526,2016-03-24 21:24:43:759
-0.2921,-2.9281,0.1177,0.1062,-9.368,2.8983,-0.6429,1.402,-2.3911,-1.2749,1.0536,-0.1318,17.12,45.96,18.1,334.94,67.87,-2.47,102626,2016-03-24 21:24:43:859
5.3103,-5.1827,-7.0018,0.1879,-9.4988,2.4307,-0.5728,5.8741,-1.9552,-1.1115,0.7758,-0.3591,14.46,45.63,21.97,339.41,72.8,-2.1,102726,2016-03-24 21:24:43:959
-1.5338,-19.2213,8.6198,2.6149,-9.1784,2.2559,-2.1791,-1.7166,-5.8675,-0.7165,3.4726,-3.5242,7.4,44.63,28.32,10.37,74.84,-28.27,102827,2016-03-24 21:24:44:060
-3.6278,-9.8428,-1.1703,2.7346,-9.1727,2.1339,-3.5568,-11.1961,4.2856,-0.8013,1.8651,-1.5322,-7.63,43.66,28.85,46.52,69.29,-52.03,102926,2016-03-24 21:24:44:159
0.8127,-5.1217,0.5234,0.8629,-9.5373,2.1133,-2.0266,-3.6263,-1.5426,0.5304,-4.1222,2.572,-7.83,42.79,30.81,28.67,76.54,-22.21,103027,2016-03-24 21:24:44:260
-1.9336,-3.9242,-3.1067,0.815,-9.196,3.3076,-1.6082,6.8478,-3.0977,1.7864,-3.7974,1.4955,5.41,43.87,28.78,2.79,69.67,-13.84,103127,2016-03-24 21:24:44:360
-1.5764,-18.2536,0.7153,0.7846,-8.5017,4.8246,-2.1682,-9.6448,-4.1478,1.1275,-0.8984,0.6031,17.32,45.79,14.78,339.12,62.9,-10.31,103226,2016-03-24 21:24:44:459
-2.2805,-13.1218,2.1787,1.0015,-8.6217,4.5643,-0.7788,-8.6735,-5.8501,0.1444,-0.6571,-0.0971,19.64,45.66,11.5,334.77,61.54,-12.38,103326,2016-03-24 21:24:44:559
-0.0399,-6.0756,0.4367,0.8138,-9.2636,3.1134,-1.3066,-0.6319,-1.986,-1.2168,0.6712,-0.0976,18.03,45.91,16.7,339.42,70.84,-14.65,103425,2016-03-24 21:24:44:658
1.7479,-6.736,-11.296,0.1993,-9.3161,3.0562,0.0324,4.9573,0.7066,-0.5699,4.3632,-0.5057,17.54,45.47,21.01,342.44,70.84,-14.65,103527,2016-03-24 21:24:44:760
-0.7657,-18.1229,6.6146,2.0665,-9.4202,1.7774,-2.979,-1.7198,-0.1124,-1.2649,0.8617,-2.4692,2.29,44.34,30.5,33.43,73.86,-49.3,103627,2016-03-24 21:24:44:860
-3.8646,-10.2428,2.0457,2.3599,-9.3571,1.7454,-2.3184,-10.4228,2.5622,-0.0757,-0.0398,-0.5928,-7.73,42.34,34.14,51.28,72.58,-53.51,103726,2016-03-24 21:24:44:959
0.0773,-3.3992,-0.2371,1.1779,-9.4196,2.4606,-4.5526,-3.0901,0.2828,1.5182,-2.7452,1.7396,-1.3,41.59,34.23,20.94,73.85,-25.58,103826,2016-03-24 21:24:45:059
-1.417,-9.268,-2.0157,1.461,-8.6141,4.4535,-3.3413,-0.9422,-7.1033,2.7298,-3.0108,1.1383,6.2,43.04,30.06,10.56,73.85,-25.58,103926,2016-03-24 21:24:45:159
-2.4917,-11.8992,0.8624,1.4552,-8.5549,4.568,-4.4278,-6.8564,-2.0154,0.6042,-0.2844,0.0205,15.91,45.45,14.21,343.91,61.45,-18.16,104026,2016-03-24 21:24:45:259
0.1192,-15.6439,0.6032,1.308,-8.5686,4.5867,-1.9703,-5.0064,-5.1151,-0.2558,1.2127,-0.4016,16.81,45.67,11.01,340.41,60.73,-17.67,104127,2016-03-24 21:24:45:360
0.5796,-5.19,1.5224,1.2368,-9.0546,3.5573,0.1589,-1.6518,-2.6048,-0.5909,-0.6647,-0.0252,15.85,45.6,16.65,344.33,64.65,-15.77,104226,2016-03-24 21:24:45:459
2.7392,-5.4886,-3.1728,1.0064,-9.179,3.3021,0.4041,3.4069,-3.9117,-1.3414,6.5904,-1.7152,15.21,44.68,20.28,347.31,69.39,-16.95,104326,2016-03-24 21:24:45:559
-0.5668,-15.389,7.2349,1.6867,-9.4065,2.2009,0.6049,-1.2411,-14.6982,-2.5952,2.0187,-2.129,5.63,44.37,25.65,2.61,69.39,-16.95,104425,2016-03-24 21:24:45:658
-4.9015,-8.2555,0.2393,2.7241,-9.2235,1.9176,-4.7918,-7.1644,-0.0158,0.4535,-0.2531,0.576,-12.07,40.44,36.24,60.6,71.22,-58.74,104526,2016-03-24 21:24:45:759
0.4552,-9.5415,0.7533,1.8355,-9.4005,2.105,-6.6014,0.1632,-2.482,0.8806,-2.784,2.1682,-7.54,40.65,33.89,51.06,70.14,-54.86,104626,2016-03-24 21:24:45:859
-7.2155,-9.1577,-12.1468,1.2867,-9.049,3.554,-4.2819,2.4586,-7.4134,2.3404,-1.4593,0.5173,10.64,42.45,26.63,358.47,67.33,-19.9,104726,2016-03-24 21:24:45:959
-1.1889,-9.2303,0.0205,1.2819,-8.6617,4.4161,-3.2635,-3.6401,-6.0846,1.2803,-0.5982,0.2751,15.02,45.83,18.11,346.96,62.04,-16.19,104826,2016-03-24 21:24:46:059
5.133,-18.1638,-1.6005,0.658,-8.6544,4.5649,1.4819,-9.6406,-3.5372,-0.3383,4.8981,-0.0711,18.17,46.64,12.66,340.21,60.55,-15.83,104926,2016-03-24 21:24:46:159
-0.2259,-6.8351,-0.2663,-0.0013,-8.7783,4.3716,2.2097,-3.2247,-5.1766,-0.2286,0.815,-0.4644,16.19,45.63,17.55,336.39,63.53,0.02,105028,2016-03-24 21:24:46:261
4.9338,-4.1688,-5.5499,0.1403,-9.1903,3.4189,0.6433,2.5448,-3.6775,-0.5462,0.2715,-0.3002,12.56,45.78,20.8,341.48,69.58,-2.35,105125,2016-03-24 21:24:46:358
-1.0554,-14.3567,3.7801,1.0937,-9.4745,2.2823,3.0209,2.9695,-9.9502,-1.7757,3.9903,-1.6186,11.36,45.08,22.94,345.06,69.58,-2.35,105226,2016-03-24 21:24:46:459
-1.7253,-8.9749,-3.9933,2.4489,-9.2926,1.9546,-3.7428,-9.0064,0.669,0.1066,1.2538,-1.765,-6,42.06,33.18,46.12,72.47,-50.62,105326,2016-03-24 21:24:46:559
-1.1488,-10.6607,0.321,1.7268,-9.4533,1.9553,-3.3435,-2.425,-4.5688,0.2986,-1.6512,1.1972,-10.79,42.59,33.52,52.46,71.37,-51.4,105426,2016-03-24 21:24:46:659
-2.3204,0.1605,-3.952,0.4033,-9.1604,3.4777,-0.9476,7.8666,-4.0132,1.2445,-1.972,1.7093,5.47,43.88,29.72,8.41,75.03,-20.73,105526,2016-03-24 21:24:46:759
0.8868,-13.1072,-2.7019,0.3694,-8.8521,4.204,-1.405,-9.1816,-4.2319,0.3459,-0.8075,0.6047,12.16,44.94,26.32,347.86,69.08,-6.61,105626,2016-03-24 21:24:46:859
-1.4406,-17.1362,1.094,0.8956,-8.9112,3.9949,-1.2803,-6.799,-0.9376,-0.4703,-3.0103,0.038,19.17,44.9,15.9,337.74,65.32,-12.64,105726,2016-03-24 21:24:46:959
0.8106,-7.9553,0.1785,0.5889,-9.1753,3.4113,0.267,-0.047,-2.8945,-0.8795,2.0342,-0.3487,19.63,45.06,14.66,334.26,66.49,-10.82,105826,2016-03-24 21:24:47:059
4.134,-1.0978,-7.5276,0.1977,-9.194,3.4061,0.3039,4.0076,-2.9784,-0.3929,2.8902,-0.7211,18.48,44.68,19.08,338.2,69.33,-9.79,105926,2016-03-24 21:24:47:159
-4.0394,-8.9137,2.205,1.5549,-9.2842,2.7487,-3.5846,1.0368,-3.5725,-0.8049,0.0196,-1.9579,5.1,45.73,25.89,12.36,71.21,-29.5,106026,2016-03-24 21:24:47:259
-1.9621,-10.2405,-1.5303,1.634,-9.2796,2.7184,-4.0509,-8.7177,0.8675,-0.0824,-0.2992,-0.3654,-3.83,45.12,29.83,27.08,71.13,-31.01,106126,2016-03-24 21:24:47:359
-1.7882,-9.5777,0.9864,0.8108,-9.275,3.0803,-1.9279,0.7692,-2.1147,0.6188,-1.9511,1.4041,-0.19,45.51,27.78,17.34,71.77,-25.36,106226,2016-03-24 21:24:47:459
-1.1348,0.4654,-0.6642,0.5402,-9.0028,3.8506,-0.6849,6.1469,-3.7977,1.3463,-1.9556,1.2864,6.85,44.73,26.23,355.52,66.64,-7.99,106327,2016-03-24 21:24:47:560
0.219,-11.6652,-3.5164,0.4308,-8.7027,4.4997,-0.98,-4.1513,-6.7385,-0.1709,-0.6379,0.0682,14.96,46.82,15.19,339.54,62.55,-5.47,106426,2016-03-24 21:24:47:659
-1.1921,-16.9536,3.1368,1.1096,-9.0402,3.6351,-3.554,-6.8124,-0.5689,-1.1578,-2.3661,-0.3264,16.53,46.12,13.61,340.69,67.2,-16.98,106525,2016-03-24 21:24:47:758
0.2973,-8.9095,-0.0029,0.8549,-9.1944,3.3019,-0.8914,-3.3669,-2.5582,-0.5399,1.8472,-0.129,17.36,45.48,13.13,337.23,69.65,-14.52,106626,2016-03-24 21:24:47:859
-0.3483,-3.335,0.6901,0.8199,-9.3774,2.7502,-0.2698,1.2803,-2.6478,-0.9675,1.2078,-0.3517,15.99,45.21,17.11,342.14,69.65,-14.52,106726,2016-03-24 21:24:47:959
6.8473,-5.8587,-13.6654,1.4829,-9.3063,2.7138,0.2178,4.7078,-0.5254,-0.4451,3.0367,-1.9741,7.42,46.17,25.02,8.63,71.62,-28.65,106826,2016-03-24 21:24:48:059
0.6328,-19.3992,4.7907,2.5275,-9.1914,2.3021,0.9365,-0.324,-13.3249,-0.8762,1.5019,-2.0465,-2.66,46.04,28.71,36.03,69.6,-47.67,106926,2016-03-24 21:24:48:159
-3.8082,-10.7883,-0.061,2.3344,-9.2768,2.1592,-6.3894,-2.4418,-2.3737,0.3824,-1.6327,1.1399,-9.28,43.26,31.36,46.28,71.08,-47.23,107026,2016-03-24 21:24:48:259
0.3872,-3.5748,-0.3207,1.6636,-9.3926,2.2764,-2.6364,0.4506,-2.2537,0.8509,-3.3219,1.9291,-4.13,43.43,31.09,32.28,73.29,-36.16,107126,2016-03-24 21:24:48:359
-1.2261,-4.9636,-2.9448,1.2473,-8.9841,3.7283,-2.0206,2.7145,-5.6656,0.9192,-0.0286,0.3015,13.93,46.03,18.79,352.42,70.1,-24.22,107226,2016-03-24 21:24:48:459
-0.8514,-11.1981,-0.1293,0.9792,-9.0198,3.7222,-2.8687,-6.9891,-3.6888,-0.099,0.1633,0.2346,15.8,45.25,15.96,344.57,66.37,-18.5,107326,2016-03-24 21:24:48:559
0.3712,-10.5982,0.8589,1.1092,-9.1997,3.2102,-0.8338,-6.9985,-2.2228,-1.1487,0.4064,-0.2554,13.87,46.42,14.45,345.14,69.74,-19.06,107426,2016-03-24 21:24:48:659
0.5205,-4.3045,-0.1506,1.1127,-9.4495,2.3746,-0.3435,-3.7205,-2.1512,-1.3505,0.9171,-0.2012,14.95,45.73,18.3,347.19,69.74,-19.06,107526,2016-03-24 21:24:48:759
4.2129,-3.5481,-5.6888,1.6923,-9.3965,2.239,-0.3678,4.7024,-1.5491,0.327,3.9754,-1.9484,5.93,45.18,26.57,14.82,76.65,-32.49,107626,2016-03-24 21:24:48:859
-4.2547,-19.3384,4.6294,3.0334,-9.0547,2.2317,1.6247,4.1549,-7.0206,-1.1804,-0.3236,-2.9946,-4.42,45.6,28.52,40.1,67.42,-53.66,107728,2016-03-24 21:24:48:961
-3.8545,-14.1156,2.6861,3.2025,-9.1073,1.7236,-7.0471,-4.3547,-5.6962,-0.1427,-2.2696,1.4563,-13.74,42.74,30.46,58.89,64.3,-62.46,107825,2016-03-24 21:24:49:058
-0.3433,-7.7041,0.0578,0.8729,-9.4075,2.6282,-1.2323,0.5116,-1.803,1.2008,-1.718,2.4183,-7.69,43.59,30.91,48.8,73.41,-50.71,107926,2016-03-24 21:24:49:159
2.9331,-3.1801,-5.0205,-0.7679,-9.0807,3.6223,1.9801,6.8202,-7.9964,1.8551,-0.8873,2.4228,0.47,45.31,27.35,352.31,67.82,11.97,108026,2016-03-24 21:24:49:259
-0.7003,-19.4222,0.0248,-0.1631,-9.3069,3.0865,2.7548,-9.7711,-1.6867,-1.2168,-3.7622,-0.204,18.54,44.57,17.18,325.89,71.63,3.02,108126,2016-03-24 21:24:49:359
-2.9112,-15.5715,2.4938,0.3555,-9.5589,2.1612,-1.249,-4.7828,-1.3419,-1.0899,-1.3077,-1.019,17.88,44.49,16.35,331.62,77.09,-9.34,108226,2016-03-24 21:24:49:459
-1.0867,-5.9064,0.0898,0.3109,-9.7623,0.8785,-2.0266,-0.6013,0.6941,-0.9697,2.0184,-0.0961,14.33,45.46,22.4,345.53,82.08,-14.72,108326,2016-03-24 21:24:49:559
9.8419,-5.035,-15.6548,0.5181,-9.7693,0.6804,-1.1148,3.9953,-1.0504,-0.435,1.5684,-0.3421,12.49,42.99,27.28,356.05,84.55,-19.49,108426,2016-03-24 21:24:49:659
-1.0704,-16.1266,7.3809,3.5146,-9.1032,0.9747,1.9763,1.5244,-10.7967,-0.0333,2.6875,-3.321,-1.49,45.31,26.91,51.18,78.37,-63.84,108526,2016-03-24 21:24:49:759
-2.1514,-10.925,-2.8365,3.7375,-8.9941,1.1432,-4.4164,-7.4193,-0.7499,-0.3891,0.9125,-1.4842,-13.09,44.09,28.2,65.95,66.51,-72.99,108626,2016-03-24 21:24:49:859
-0.0821,-6.7401,-0.2046,1.5646,-9.5947,1.2904,-1.8865,-0.0153,-1.3509,0.5217,-2.8612,2.3093,-14.06,44.25,26.68,68.28,71.69,-66.04,108726,2016-03-24 21:24:49:959
-0.3327,-9.8152,-2.7774,0.5287,-9.5901,1.9801,-0.0535,4.5701,-1.5802,0.9727,-2.5653,2.2921,-3.88,45.83,25.65,44.9,78.06,-50.49,108826,2016-03-24 21:24:50:059
-0.7255,-10.9047,-0.1893,-0.1902,-9.3668,2.8978,-0.0347,-5.2589,-4.5271,0.5434,0.0565,0.3496,11.12,48.09,18.02,338.39,72.77,3.75,108926,2016-03-24 21:24:50:159
0.2467,-19.1834,2.6635,0.096,-9.4091,2.7622,-0.5494,-0.988,-2.4869,-0.1803,-1.8473,0.1355,12.03,48.05,16.17,338.66,73.63,-1.99,109026,2016-03-24 21:24:50:259
0.4634,-8.2693,0.214,0.6509,-9.6289,1.7411,-0.817,-6.7515,1.7557,-0.8991,-0.8865,-0.0657,15.64,46.38,13.93,336.51,75.93,-13.81,109126,2016-03-24 21:24:50:359
-0.2131,-6.7798,0.5526,0.5958,-9.7057,1.2706,-0.1671,-0.001,-0.3853,-0.794,1.1215,-0.053,15.35,46.24,16.08,346,81.77,-25.12,109226,2016-03-24 21:24:50:459
9.1902,-7.6514,-17.0057,0.721,-9.7374,0.9134,-0.9089,2.6314,-0.3763,-0.2675,4.3021,-0.4478,13.98,45.01,22.39,4.83,83.62,-38.19,109325,2016-03-24 21:24:50:558
-2.6289,-18.6869,8.2609,1.9326,-9.5952,0.606,2.0033,-0.0765,-12.5563,-0.832,2.9277,-2.1723,6.36,45.88,26.12,21.19,83.19,-38.29,109426,2016-03-24 21:24:50:659
-3.8203,-11.701,-1.031,3.0275,-9.3208,0.356,-4.4296,-5.7174,-1.5321,0.5015,-0.2417,0.1023,-9.81,43.6,31.26,76.49,71.89,-83.29,109526,2016-03-24 21:24:50:759
-1.6543,-6.8794,0.5119,2.3503,-9.5127,0.3947,-5.5497,-2.7983,-1.6516,0.6318,-2.5274,1.1134,-8.66,44.12,31.15,77.58,75.94,-80.47,109626,2016-03-24 21:24:50:859
-0.5344,-1.3122,-0.451,0.8686,-9.6903,1.2303,-1.3828,5.7548,-0.4783,1.6027,-2.3558,1.1624,7.25,44.98,26.26,16.22,81.17,-35.22,109727,2016-03-24 21:24:50:960
-3.0031,-15.7187,0.0872,0.6274,-9.2976,3.0547,-3.4129,-4.6861,-3.8666,0.4064,-0.1298,0.0631,16.71,47,12.77,336.01,74.32,-15.34,109826,2016-03-24 21:24:51:059
-0.499,-17.5585,1.8704,0.4673,-9.4527,2.5687,-2.7488,-5.5159,-1.7495,-0.9171,1.4021,-0.1528,16.75,47.53,10.14,332.22,71.46,-11.61,109926,2016-03-24 21:24:51:159
1.2642,-10.0587,1.5525,0.3098,-9.751,0.996,0.0471,-3.3406,-0.6913,-1.128,1.2429,-0.038,14.94,45.42,18,341.16,83.89,-17.28,110026,2016-03-24 21:24:51:259
1.5876,-2.8612,5.1106,0.5146,-9.7734,0.622,0.7829,-0.7278,0.8695,-0.4297,0.778,-0.5646,15.46,44.29,23.18,5.75,85.28,-39.6,110126,2016-03-24 21:24:51:359
-0.621,-9.2892,0.5533,3.0502,-9.2534,1.1139,-0.964,0.5569,-6.1201,-1.2275,0.2705,-3.3821,-2.38,46.8,26.3,49.09,80.26,-57.71,110226,2016-03-24 21:24:51:459
-3.1004,-19.4222,4.198,4.0396,-8.9137,0.6309,-3.6354,-9.6779,5.0749,-0.319,0.2387,-0.6025,-13.8,42.38,29.04,73.71,65.36,-81.12,110326,2016-03-24 21:24:51:559
-1.5074,-10.4336,-0.7585,2.5233,-9.4266,0.9706,-6.1111,-4.6022,-3.4816,0.7108,-4.0533,2.478,-9.99,44.71,28.56,66.32,74,-68.96,110427,2016-03-24 21:24:51:660
-1.202,-0.3871,-0.8903,1.3504,-9.6039,1.4532,-1.8035,2.1345,-1.7122,1.789,-3.1641,2.3362,2.94,45.42,27.2,27.97,78.33,-42.9,110525,2016-03-24 21:24:51:758
-0.4515,-17.0866,-1.4815,-0.0413,-9.397,2.8044,1.2175,5.479,-4.5354,-0.4468,-2.3094,-0.7558,16.98,43.76,15.14,329.15,75.17,-3.68,110626,2016-03-24 21:24:51:859
-0.8798,-14.4112,1.3962,0.5601,-9.5112,2.3223,-1.4648,-8.1461,-2.4592,-0.4468,-2.3094,-0.7558,16.98,43.76,15.14,329.15,75.17,-3.68,110726,2016-03-24 21:24:51:959
0.0827,-8.1221,0.9317,0.6318,-9.7307,1.0414,-1.911,-4.2782,0.0188,-1.0634,1.1615,-0.0876,16.46,46.64,14.98,347.58,82.86,-31.24,110825,2016-03-24 21:24:52:058
-0.1575,-2.3456,3.6305,0.7473,-9.7692,0.4182,-0.9208,-0.691,0.5937,-1.2073,-0.1765,0.0263,14.64,46.38,17.29,16.52,84.99,-60.77,110927,2016-03-24 21:24:52:160
0.3358,-9.5536,-6.1878,2.5756,-9.4608,0.1732,-0.0694,0.2414,-10.5855,-0.4251,6.8757,-1.4194,13.46,45.74,22.45,38.98,74.74,-86.15,111025,2016-03-24 21:24:52:258
-3.0464,-10.7992,-0.7424,3.7943,-9.0304,-0.475,-3.5881,-7.8754,6.1239,-1.7234,-0.5365,-2.7736,2.74,45.26,25.96,57.47,74.74,-86.15,111126,2016-03-24 21:24:52:359
-3.0326,-11.6762,1.1134,3.0224,-9.3261,-0.2457,-7.1199,-2.6938,0.7017,0.6815,-0.957,0.8374,-9.65,42.1,33.07,82.71,66.4,-97.01,111226,2016-03-24 21:24:52:459
-1.8442,-1.1431,-4.8202,1.8668,-9.6167,0.4518,-3.3176,-0.6169,0.1169,1.3643,-2.4068,1.862,-4.78,44.15,31.98,70.81,78.71,-76.4,111325,2016-03-24 21:24:52:558
0.2411,-11.4116,-1.4155,0.5594,-9.5682,2.0754,-1.7614,5.6304,-7.3185,1.5389,-0.9406,1.1674,10.19,46.05,22.52,3.59,79.2,-28.26,111426,2016-03-24 21:24:52:659
-1.1137,-17.4813,1.5962,0.7156,-9.5979,1.8812,-1.3831,-4.5016,-2.424,-0.1312,-2.0432,0.0318,14.25,46.58,17.07,343.07,77.34,-15.09,111526,2016-03-24 21:24:52:759
0.3466,-10.5134,1.2968,0.3955,-9.6376,1.7693,-0.2965,-8.3472,-0.8049,-0.0961,2.0436,-0.0782,14.61,46.45,13.26,333.99,79.35,-12.6,111627,2016-03-24 21:24:52:860
3.1483,-1.6464,-1.3652,0.5975,-9.7424,0.948,-0.0397,-3.408,-0.8584,-1.5099,1.394,-0.4537,14.43,46.86,17.11,340.43,79.35,-12.6,111726,2016-03-24 21:24:52:959
1.1357,-6.316,3.3998,2.5312,-9.4287,0.9286,-2.5363,2.3302,-4.1382,-0.7796,4.6207,-2.3148,4.78,45.79,25.09,40.53,74.04,-69.85,111829,2016-03-24 21:24:53:062
-1.0756,-19.4222,-0.6455,4.95,-8.353,1.3767,-4.6973,-10.7665,0.7511,0.6213,0.673,-1.5674,-16.42,42.43,28.79,72.72,62.51,-80.3,111926,2016-03-24 21:24:53:159
-2.4751,-12.4001,1.0108,3.9988,-8.8527,1.3456,-4.599,-2.4831,-7.0215,0.7717,-1.0576,1.7571,-22.16,41.83,27.51,77.71,64.52,-71.4,112027,2016-03-24 21:24:53:260
0.5667,-3.1966,-0.2215,1.0507,-9.6386,1.4709,-0.9576,2.7714,-1.1869,0.8806,-2.5149,2.7844,-3.96,44.52,29.03,54.62,73.53,-67.04,112127,2016-03-24 21:24:53:360
0.3745,-8.0582,-5.4792,0.0293,-9.3611,2.9223,0.4151,6.7753,-3.0653,2.3927,-2.0227,2.2251,7.41,44.86,26.34,350.02,72.66,-0.57,112226,2016-03-24 21:24:53:459
-0.8151,-17.9097,-0.6316,0.1553,-9.1582,3.5035,-0.2535,-8.9194,-5.3448,1.5766,-0.3652,0.4306,15.09,45.89,18.51,335.16,72.66,-0.57,112326,2016-03-24 21:24:53:559
-0.5279,-12.4672,1.284,0.4321,-9.3896,2.7961,-0.5672,-8.7202,-2.5736,-0.9939,-0.7319,-0.2547,15.52,46.6,12.89,333.88,73.23,-8.79,112426,2016-03-24 21:24:53:659
0.0933,-3.092,0.5694,0.6827,-9.7023,1.253,-0.4637,5.3318,-0.6185,-1.2211,0.6588,-0.4032,14.87,45.59,19.37,342.84,77.67,-14.61,112526,2016-03-24 21:24:53:759
7.549,-6.7603,-11.9585,1.1164,-9.6669,1.2147,1.2386,5.4358,0.0687,-0.6796,7.1264,-1.4116,13.47,45.46,23.71,0.11,81.63,-28.58,112626,2016-03-24 21:24:53:859
-1.0453,-19.1934,5.5324,3.7828,-8.9858,1.0563,-3.8486,-9.5354,8.3578,-0.2646,1.7808,-1.4934,-10.4,43.51,28.87,64.18,73.16,-66.96,112730,2016-03-24 21:24:53:963
-0.3288,-11.9869,0.3567,3.2485,-9.1838,1.129,-7.1167,-4.5797,-4.754,0.343,-1.6927,1.3251,-18.21,42.3,28.62,76.15,66.39,-74.4,112826,2016-03-24 21:24:54:059
0.6182,-2.6648,0.3477,1.0325,-9.6803,1.1812,-0.0658,2.3713,0.2769,1.6906,-3.6855,1.6934,2.14,45.01,29.28,30.33,80.79,-41.16,112925,2016-03-24 21:24:54:158
0.8049,-9.2558,-2.6259,0.4162,-9.4321,2.6521,-0.7285,7.72,-1.9702,2.5385,0.4194,1.1313,11.42,46.06,22.08,11.36,80.79,-41.16,113026,2016-03-24 21:24:54:259
0.4409,-18.4028,2.0476,0.3508,-9.1819,3.4263,-0.377,-8.411,-5.0216,0.7728,-1.3841,-0.2347,17.79,46.25,12.77,327.3,70.09,-0.24,113126,2016-03-24 21:24:54:359
-1.0412,-9.8823,1.8095,0.4483,-9.2971,3.0875,0.0451,-8.0604,-1.9077,-1.5258,1.52,-0.215,17.6,46.28,10.18,328.25,71.45,-8.26,113226,2016-03-24 21:24:54:459
-0.1687,-2.9658,0.2557,0.4582,-9.6578,1.6395,-0.6651,5.2407,-1.1242,-0.7316,1.2631,-0.6082,13.49,46.91,21.3,343.38,76.99,-8.49,113326,2016-03-24 21:24:54:559
3.8472,-5.7902,-7.5293,0.7276,-9.6026,1.8521,3.6071,6.6175,-3.6663,0.54,8.1034,-1.7035,9.47,44.35,24.51,356.71,80,-15.61,113426,2016-03-24 21:24:54:659
-0.9335,-15.6232,1.7702,2.3473,-9.3735,1.6725,-4.8677,-8.8193,5.0104,-0.9751,-1.8627,-3.0993,-1.51,46.96,25.6,19.27,78.29,-21.45,113526,2016-03-24 21:24:54:759
-1.1749,-11.3767,-0.3413,1.5005,-9.5441,1.6821,-2.7454,-4.4125,-2.3892,-0.3464,1.5286,1.1704,-11.54,43.92,29.28,57.24,72.91,-54.53,113627,2016-03-24 21:24:54:860
-1.9655,-0.311,-1.8554,0.4252,-9.4567,2.5612,-0.6156,3.2677,-1.6023,0.5402,-3.6933,1.7663,-1.61,46.22,26.07,9.66,74.65,-9.43,113726,2016-03-24 21:24:54:959
0.895,-8.9803,-2.7421,0.016,-9.1371,3.5613,0.0417,4.9397,-5.2544,0.9938,-0.1794,1.2015,12,46.55,18.25,340.62,68.71,-0.26,113826,2016-03-24 21:24:55:059
-1.2362,-12.6405,0.6241,0.5192,-9.2447,3.2305,-0.8689,-8.8283,-2.4619,-0.9076,-2.7584,-0.4647,15.79,46.97,13.87,336.42,70.51,-9.13,113925,2016-03-24 21:24:55:158
0.0941,-9.6139,-0.007,0.0038,-9.522,2.3455,-1.1433,-3.4404,-2.1193,-1.0633,2.7018,-0.1166,15.68,46.33,14.01,327.02,76.16,-0.09,114026,2016-03-24 21:24:55:259
5.2279,-0.803,-0.6149,0.2593,-9.6198,1.8876,0.0224,4.438,-1.0618,-1.0273,1.2228,-0.4763,14.38,46.23,18.42,333.89,76.16,-0.09,114126,2016-03-24 21:24:55:359
-2.632,-9.9991,3.0702,2.2504,-9.3405,1.9651,-2.8563,-0.6027,-2.8734,-0.5714,5.7019,-2.7781,5.56,47.11,24.24,10.78,77.64,-28.94,114226,2016-03-24 21:24:55:459
-2.939,-9.5376,-4.4716,2.8726,-9.1888,1.8668,-2.9129,-8.9331,4.1375,-0.8687,0.7128,-2.0205,-8.46,45.35,26.93,45.81,72.26,-48.87,114325,2016-03-24 21:24:55:558
-1.9329,-11.8761,0.9184,1.5105,-9.5367,1.7144,-4.7381,-3.9443,-0.9324,0.4625,-3.4498,1.8069,-14.32,43.06,29.78,60.27,72.39,-54.77,114426,2016-03-24 21:24:55:659
0.0282,-2.2483,-0.0583,0.6584,-9.4757,2.4389,-0.9637,0.9289,-2.1982,1.177,-3.3236,2.3093,-3.33,43.88,29.3,15.53,75.07,-15.11,114526,2016-03-24 21:24:55:759
0.4171,-12.6966,-0.2071,-0.0872,-9.0552,3.7637,0.028,2.6448,-7.117,0.8219,-1.1583,0.8905,12.96,47.23,18.59,339.24,69.53,-0.05,114626,2016-03-24 21:24:55:859
0.5323,-16.6569,0.2556,0.37,-9.2172,3.3282,-0.0568,-6.2462,-2.5426,-0.4625,-0.9658,-0.4442,17.34,46.3,13.45,332.44,70.03,-6.34,114726,2016-03-24 21:24:55:959
-0.4306,-9.01,0.2459,0.4072,-9.6,1.9605,-1.6359,-5.4221,0.2728,-1.0567,1.1858,-0.1077,15.49,45.48,16.02,339.19,74.32,-11.64,114826,2016-03-24 21:24:56:059
0.3678,-3.0458,0.476,0.4324,-9.7088,1.3124,-0.235,4.3307,-0.9787,-1.0628,1.0195,-0.175,14.56,45.02,19.47,343.95,81.9,-18.24,114926,2016-03-24 21:24:56:159
1.396,-9.3549,-10.1676,2.0321,-9.4845,1.4444,5.5778,2.002,-12.4521,0.0025,3.0652,-2.5695,8.25,44.02,26.1,27.31,75.27,-54.59,115026,2016-03-24 21:24:56:259
-3.774,-19.4222,3.6074,3.5892,-9.0313,1.3129,-4.8535,-6.3776,0.859,-0.7197,0.9447,-2.7417,-6.11,42.74,28.62,54.7,67.06,-69.91,115127,2016-03-24 21:24:56:360
-0.9409,-11.4497,1.136,2.5561,-9.4181,0.9674,-5.4572,-2.3802,-1.0396,0.5211,-2.2539,1.9584,-13.1,40.89,31.81,72.89,73.82,-69.27,115226,2016-03-24 21:24:56:459
0.2804,-2.7637,0.6697,1.5382,-9.581,1.4176,-1.6641,-1.1425,-0.4573,1.3564,-3.221,2.0022,-4.63,42.54,31.2,59.62,73.82,-69.27,115326,2016-03-24 21:24:56:559
0.9666,-9.6497,-1.4487,0.3861,-9.2437,3.2521,-2.0052,5.6844,-10.1335,1.018,-1.0711,0.565,11.96,46.7,20.79,345.57,70.49,-6.77,115425,2016-03-24 21:24:56:658
0.8494,-19.363,2.5391,0.8795,-9.2269,3.2033,0.1748,-0.4901,-4.274,0.0796,-2.3659,-0.0611,14.27,46.76,15.79,344.73,70.2,-15.35,115527,2016-03-24 21:24:56:760
-0.2896,-9.4754,1.2955,1.2202,-9.4603,2.2771,0.1174,-5.6212,-1.7163,-1.3646,0.6869,-0.3882,14.67,47.45,14.98,349.13,74.73,-28.19,115626,2016-03-24 21:24:56:859
0.6697,-2.5206,1.6797,1.3811,-9.5858,1.5412,-1.4632,2.4915,-0.0585,-1.1023,0.8405,-0.4237,12.87,46.53,19.3,355.88,74.73,-28.19,115726,2016-03-24 21:24:56:959
-1.5562,-8.1708,3.932,2.6686,-9.3239,1.4541,-2.2068,1.6015,-7.1263,-1.4274,1.2458,-2.5819,2.06,45.46,27.48,39.2,71.95,-61.41,115826,2016-03-24 21:24:57:059
-2.3464,-17.4695,-6.0239,3.6704,-9.0239,1.1258,-5.3624,-8.6627,-3.7984,0.2604,-1.9336,1.3118,-14.4,41.24,30,70.16,66.95,-72.95,115926,2016-03-24 21:24:57:159
-1.0887,-11.6214,1.5813,2.5165,-9.4311,0.9449,-3.4761,-3.3748,-1.1699,0.582,-2.9291,2.4516,-9.42,43.62,32.33,65.96,74.09,-69.42,116027,2016-03-24 21:24:57:260
-0.8008,-1.9136,-1.2563,0.8317,-9.3014,2.9937,-0.702,4.9904,-3.0309,2.7757,-2.0407,1.1694,11.22,46.81,24.92,12.85,77.7,-40.99,116126,2016-03-24 21:24:57:359
1.369,-10.7163,-3.1206,0.7257,-9.0203,3.7787,-2.3799,4.4735,-8.6492,0.4414,-1.8635,0.7573,14.05,46.65,15.21,343.58,71.53,-15.53,116226,2016-03-24 21:24:57:459
0.4634,-13.7211,1.3256,1.4963,-9.3027,2.7187,0.3841,-10.6218,-2.6106,-0.766,-0.5517,-1.2135,17.99,46.81,11.15,337.4,68.16,-18.67,116325,2016-03-24 21:24:57:558
-0.3215,-9.1258,0.1616,1.31,-9.5482,1.8126,-0.6872,-6.3308,-0.3129,-1.3971,0.6935,0.0179,14.12,46.62,13.02,349.41,71.55,-28.83,116426,2016-03-24 21:24:57:659
4.9414,-1.6494,-0.8404,1.4755,-9.634,1.0856,0.0068,7.4936,0.6548,-1.1774,0.8076,-0.3488,16.04,45.47,24.2,15.7,79.23,-53.66,116525,2016-03-24 21:24:57:758
-3.28,-8.34,5.2763,2.6626,-9.3639,1.1827,-0.009,2.7984,-11.5522,0.4367,5.7888,-1.0232,13.34,43.37,28.02,23.21,79.23,-53.66,116626,2016-03-24 21:24:57:859
-0.9787,-17.6461,-6.2742,3.6473,-9.0414,1.0583,-4.7798,-8.1532,-3.2045,-0.519,2.5804,-0.9075,-12.7,41.57,32.54,69.46,67.22,-73.82,116726,2016-03-24 21:24:57:959
-0.5653,-7.8241,0.6093,2.4606,-9.4461,0.9418,-3.3397,-1.9725,0.021,0.4535,-2.6706,1.9919,-14.62,42.14,32.06,72.21,67.22,-73.82,116826,2016-03-24 21:24:58:059
0.0586,-0.1585,0.364,0.9571,-9.349,2.8019,-0.7582,6.7598,-2.654,1.8892,-3.0197,1.7981,4.79,44.65,28.34,6.1,72.43,-18.86,116926,2016-03-24 21:24:58:159
-2.5175,-19.4222,-0.0169,1.1081,-8.941,3.8732,-3.1661,4.1988,-9.9394,2.959,-2.7485,0.7554,13.87,46.49,21.71,350.84,72.43,-18.86,117026,2016-03-24 21:24:58:259
0.5792,-15.0969,-0.0543,0.996,-9.1998,3.2467,-0.1026,-8.4413,-3.5867,-0.8208,1.2742,-0.4633,19.26,47.73,8.57,332.58,69.74,-17.05,117129,2016-03-24 21:24:58:362
0.4274,-5.3493,0.953,0.8828,-9.4342,2.5274,-0.4019,-6.96,-1.8836,-1.2092,0.9722,-0.0762,16.78,46.73,12.51,338.61,74.16,-19.25,117226,2016-03-24 21:24:58:459
4.2038,-2.9209,-10.5312,1.4878,-9.4249,2.2643,2.5032,5.7833,-9.9964,-0.3009,3.4862,-1.485,12.72,45.57,20.78,348.98,75.35,-15.92,117326,2016-03-24 21:24:58:559
-1.9086,-16.3063,4.907,2.9769,-9.16,1.8448,-4.1127,-0.0379,1.6596,-1.0686,0.9621,-2.8865,5.6,45.92,26.36,29.13,69.08,-58.21,117426,2016-03-24 21:24:58:659
-0.3289,-11.4573,1.198,3.0772,-8.9841,2.4469,-3.0377,-6.4574,-3.4212,0.877,-0.0858,0.5049,-14.05,42.47,31.07,57.97,65.38,-58.94,117526,2016-03-24 21:24:58:759
-0.988,-3.8606,-0.6534,2.3244,-9.1414,2.6837,-3.5269,-3.4816,-1.3492,1.0585,-2.6762,1.9798,-10.02,44.28,29.12,46.96,66.37,-51.51,117626,2016-03-24 21:24:58:859
0.387,-3.9211,-2.068,1.2878,-8.7356,4.2662,-4.3729,5.5435,-11.5199,1.6478,-2.1472,1.7811,6.91,48.01,20.81,359.13,62.97,-16.8,117726,2016-03-24 21:24:58:959
-0.3219,-19.2871,2.5067,1.5441,-8.7594,4.1302,-0.7116,-8.5437,-1.4073,0.31,-2.0409,0.7844,13.57,47.29,15.55,348.01,62.92,-18.36,117827,2016-03-24 21:24:59:060
-0.7542,-11.8552,-0.1558,1.227,-8.9312,3.8599,-0.6084,-8.4564,-2.1088,-0.6496,1.6354,-0.2168,17.43,45.99,11.2,338.83,65.61,-17.64,117926,2016-03-24 21:24:59:159
0.0951,-3.3417,0.3048,1.0488,-9.3777,2.6699,-0.8712,4.7272,-2.0131,-0.8384,0.544,-0.28,15.44,45.52,20.5,347.77,70.01,-17.68,118026,2016-03-24 21:24:59:259
4.6447,-5.2283,2.498,1.0478,-9.2379,3.12,0.4206,4.14,-0.1166,0.6751,2.7633,-0.7676,13.99,45.77,23.28,351.58,70.39,-18.56,118126,2016-03-24 21:24:59:359
1.7482,-16.1705,10.6769,3.5525,-8.6364,2.9936,-3.3912,-7.0143,5.5027,-0.5098,0.8584,-2.5847,-5.6,44.9,28.14,29.52,67.11,-33.33,118226,2016-03-24 21:24:59:459
-4.2656,-12.1368,-8.1401,3.364,-8.5697,3.3785,-6.2855,-11.3767,-0.0443,0.6831,0.5985,0.4456,-15.73,43.5,28.56,47.16,60.91,-44.88,118327,2016-03-24 21:24:59:560
0.9222,-3.5386,1.7777,2.2995,-9.181,2.5675,-1.7634,-0.8057,-1.0003,0.7924,-5.0116,2.1082,-2.44,45.36,30.24,31.21,69.42,-41.85,118426,2016-03-24 21:24:59:659
-4.0729,-2.0128,-8.5923,1.4027,-9.0359,3.5432,-1.1695,6.3627,-1.0483,2.0636,0.7688,1.9347,9.61,44.74,25.54,13.83,69.42,-41.85,118526,2016-03-24 21:24:59:759
-3.7657,-19.4222,3.0347,1.0257,-8.917,3.9503,0.9676,-1.4795,-5.1314,0.0434,-2.7422,-0.3956,18.55,45.03,14.12,337.21,65.41,-14.56,118626,2016-03-24 21:24:59:859
-0.5287,-10.7891,-0.1091,1.3338,-8.9388,3.8064,-4.253,-11.4379,0.7348,-0.2139,1.7049,-0.5924,19.69,45.66,11.69,337.09,65.71,-19.31,118726,2016-03-24 21:24:59:959
2.4066,-3.5088,-0.8396,0.6111,-9.2506,3.1973,2.1923,4.7894,-4.0209,-0.1203,6.0435,-0.9036,14.37,44.88,20.16,348.9,68.71,-17.21,118826,2016-03-24 21:25:00:059
1.8479,-4.7547,-3.1713,1.2203,-9.2906,2.8925,1.379,5.8276,-9.1878,-1.5365,0.4914,-2.7888,7.14,45.24,23.71,356.47,70.61,-10.82,118926,2016-03-24 21:25:00:159
-2.6537,-18.2766,7.8804,2.9014,-9.0409,2.4524,-5.7644,-7.914,3.5952,0.2538,1.9583,0.7201,-11.71,42.5,30.37,49.63,67.21,-49.79,119026,2016-03-24 21:25:00:259
0.9502,-11.8195,1.5744,1.9445,-9.3142,2.3738,-4.559,-5.8514,-4.0191,0.1604,-3.8872,2.5487,-12.74,44.08,28.45,46.35,71.77,-39.32,119127,2016-03-24 21:25:00:360
-3.7917,-0.0893,-7.9659,0.4261,-9.0902,3.6548,-0.7467,3.2538,-2.8338,1.7715,-4.4872,2.1462,1.53,44.45,31.6,15.86,72.54,-25.22,119226,2016-03-24 21:25:00:459
2.5062,-8.8138,-1.4109,-0.6525,-8.8102,4.2574,-3.3018,7.1025,-11.7707,1.6122,0.1653,2.1916,12.3,45.25,23.03,338.3,63.95,8.71,119326,2016-03-24 21:25:00:559
-2.3077,-10.6874,-0.789,-0.6201,-8.6024,4.6674,1.6403,-10.782,-5.2914,1.1997,1.5824,-1.6768,24.58,40.56,15.36,318.12,61.31,7.57,119426,2016-03-24 21:25:00:659
-1.7106,-8.6935,-0.4959,-0.8956,-8.9713,3.8579,-0.3485,-4.7995,-4.436,-1.2553,3.7263,-0.973,19.2,44.34,17.05,327.99,61.31,7.57,119526,2016-03-24 21:25:00:759
0.2337,-0.9283,1.9618,-0.7945,-9.3546,2.8338,0.6278,6.3686,-1.2333,-0.9508,0.2789,-0.2573,12.21,43.89,26.3,331.93,70.52,16.04,119626,2016-03-24 21:25:00:859
-2.8471,-16.3445,3.4168,0.9904,-9.1347,3.4273,-0.8338,-3.4486,-2.9235,0.3654,1.6248,-0.9028,10.89,42.23,29.85,341.78,71.27,4.8,119726,2016-03-24 21:25:00:959
-3.1959,-10.4425,-5.2519,1.351,-8.9808,3.7001,-6.7121,-10.2279,1.2064,-0.0331,-0.1853,-2.0109,-7.38,44.59,26.52,20.17,68.67,-16.12,119826,2016-03-24 21:25:01:059
-0.7434,-7.1714,0.765,0.5685,-8.9581,3.9497,-1.6348,-1.9379,-2.917,0.0173,-4.3729,2.2478,-5.61,45.99,26.83,13.01,65.99,-8.19,119926,2016-03-24 21:25:01:159
0.4636,-0.3373,-2.681,-0.5539,-8.6523,4.5826,-0.0294,5.9187,-3.5808,0.981,-1.9337,2.2711,6.26,45.67,25.55,348.29,61.92,6.89,120026,2016-03-24 21:25:01:259
0.3192,-19.228,2.745,-0.3545,-8.6173,4.6676,2.2281,-1.722,-7.2054,-0.3042,-2.9538,0.1185,19.06,44.65,19.05,324.75,58.99,17.64,120127,2016-03-24 21:25:01:360
-3.4683,-11.2229,0.5165,0.5974,-8.8546,4.1726,-1.8742,-11.7602,2.8958,-0.7426,-2.4739,-0.9729,21.09,44.04,15.37,326.02,61.49,4.34,120226,2016-03-24 21:25:01:459
-0.0267,-3.7811,-0.3777,0.1255,-9.2488,3.258,-2.3953,-1.5192,-2.428,-0.6757,2.2433,-0.4547,16.44,44.82,20.05,336.13,70.58,-2.21,120326,2016-03-24 21:25:01:559
-0.7929,-7.294,0.8803,0.641,-9.2945,3.0614,3.2545,6.4243,-10.3115,-0.1579,1.8383,-1.3255,12.51,45.74,24.37,348.81,71.4,-11.83,120426,2016-03-24 21:25:01:659
-3.8253,-19.4222,3.9498,2.2644,-9.1958,2.5456,-3.4183,-9.0166,2.5057,-0.5673,2.0324,-1.6654,-2.23,44.34,30.37,31.44,69.67,-41.65,120526,2016-03-24 21:25:01:759
-1.7377,-13.9992,0.6597,1.8714,-9.2821,2.5516,-6.4236,-4.6779,-6.3799,0.299,-0.4433,0.5713,-9.07,43.59,30.75,41.04,69.67,-41.65,120626,2016-03-24 21:25:01:859
-0.4107,-1.9447,0.1705,0.6064,-9.2311,3.2542,-0.4083,0.8009,-1.904,1.6222,-3.1709,1.8152,4.43,42.87,30.16,2.08,70.27,-10.56,120726,2016-03-24 21:25:01:959
1.4323,-7.4069,-2.8197,-0.2171,-8.8062,4.3097,-1.0843,6.7562,-5.1271,1.6304,-0.3282,1.7263,13.62,44.25,23.76,346.65,70.27,-10.56,120826,2016-03-24 21:25:02:059
-1.0574,-14.9399,1.5171,-0.1396,-8.6673,4.5857,-0.8749,-7.8602,-4.9958,0.3015,-1.4733,0.2051,22.26,43.18,12.31,320.26,62.22,7.34,120926,2016-03-24 21:25:02:159
-0.4855,-10.2516,0.7758,-0.2534,-8.8391,4.2398,-1.2365,-7.0456,-1.5975,-0.7246,0.5959,-0.0736,22.16,43.85,9.42,319.1,64.34,3.42,121027,2016-03-24 21:25:02:260
0.3328,-3.2302,1.3286,-0.6092,-9.2951,3.0661,0.0122,-1.9252,-1.8507,-0.3244,2.672,-0.9758,19.13,43.74,19.92,325.28,68.97,8.82,121126,2016-03-24 21:25:02:359
-1.0506,-8.398,3.309,0.0726,-9.4344,2.6754,4.0207,6.8926,-11.8256,-0.6169,3.3921,-2.3094,12.57,44.67,23.25,340.4,74.16,-1.55,121225,2016-03-24 21:25:02:458
-4.2266,-19.4222,2.2497,2.1137,-9.2457,2.4938,-3.3038,-7.1599,3.1737,-0.1328,2.2402,-1.4657,-7.42,43.14,29.92,38.02,70.53,-40.28,121326,2016-03-24 21:25:02:559
-3.2462,-12.9844,-0.6267,1.8645,-9.244,2.691,-5.2699,-4.6213,-3.9826,0.6703,-1.2866,0.9873,-15.57,42.93,28.85,50.59,70.53,-40.28,121426,2016-03-24 21:25:02:659
-1.6927,-0.4601,-0.4332,0.5917,-9.1691,3.4275,-0.4416,0.8466,-2.4925,2.0518,-3.8704,1.8547,3.43,44.97,27.73,2.45,69.23,-9.79,121526,2016-03-24 21:25:02:759
1.1109,-3.6314,-2.3002,-0.6072,-8.6463,4.5872,0.1609,4.8543,-7.3319,-0.6511,-2.6466,-0.1427,17.88,45.34,17.54,331.69,62.64,3.81,121627,2016-03-24 21:25:02:860
-0.9428,-14.5672,0.5965,-0.2037,-9.036,3.8051,-0.4809,-8.7443,-3.3311,-1.4066,2.3969,-0.899,20.94,44.48,13.99,323.12,67.13,3.06,121726,2016-03-24 21:25:02:959
-2.0282,-11.6689,0.0814,-0.4283,-9.5972,1.9699,-2.389,-5.997,-0.8118,-1.0011,1.7318,-0.4452,14.04,44.45,24.96,334.13,73.29,6.86,121826,2016-03-24 21:25:03:059
0.8472,0.4629,0.8237,-0.1242,-9.682,1.5539,-1.0649,-0.2969,-1.8877,-1.0011,1.7318,-0.4452,14.04,44.45,24.96,334.13,73.29,6.86,121926,2016-03-24 21:25:03:159
0.3429,-6.7447,-1.785,1.9816,-9.4838,1.5171,-0.997,0.5396,-2.4589,-0.3814,5.2777,-1.9773,6.37,44.92,28.66,8.35,80.9,-21.93,122025,2016-03-24 21:25:03:258
-1.7576,-9.9308,-3.7162,2.5656,-9.3173,1.6659,-4.6589,-10.6399,2.1956,-0.5934,0.8898,-3.2419,-2.43,44.37,30.17,42.53,75.26,-52.56,122126,2016-03-24 21:25:03:359
-0.9384,-9.6298,1.096,0.8855,-9.5922,1.8376,-2.0805,-2.7281,-0.4906,0.0987,-3.561,1.9787,-11.67,42.98,29.12,55.26,75.88,-48.24,122226,2016-03-24 21:25:03:459
-2.0219,-1.9899,-4.2369,0.3302,-9.3425,2.963,-0.5177,4.4059,-2.6522,1.497,-3.3992,2.1331,-0.95,44.23,30.49,5.91,72.3,-6.36,122326,2016-03-24 21:25:03:559
-3.7126,-16.8264,2.1704,0.1109,-9.007,3.8772,-1.3701,6.4667,-5.7942,2.0917,-2.8932,1.4998,9.62,46.27,25.79,347.67,66.7,-1.64,122426,2016-03-24 21:25:03:659
-0.2473,-15.3683,0.0924,0.1829,-8.9165,4.0784,-2.5646,-8.4197,-2.9338,0.4218,-0.0161,-0.2361,18.94,46.2,11.83,329.11,65.4,-2.57,122526,2016-03-24 21:25:03:759
-0.0594,-8.3915,0.5061,0.0399,-9.4663,2.5608,-0.2033,-4.0469,-2.1897,-1.235,1.1783,-0.0638,16.78,46.48,15.01,331.91,69.98,-2.6,122626,2016-03-24 21:25:03:859
5.7771,-4.0553,-8.4208,0.0863,-9.5581,2.192,-0.1263,0.614,-1.3698,-0.8738,0.8391,-0.2466,17.59,44.35,18.35,328.38,77.07,-2.25,122726,2016-03-24 21:25:03:959
-1.9239,-11.4997,6.3783,2.0024,-9.4463,1.7112,-2.9926,-2.5986,0.0444,-0.9906,3.8182,-2.6644,7.75,45.73,26.1,22.9,74.42,-49.48,122826,2016-03-24 21:25:04:059
-3.7774,-8.1688,1.1103,2.7268,-9.2834,1.598,-3.2752,-9.652,1.5263,-0.7625,1.1299,-1.801,-3.42,44.64,30.59,41.06,74.42,-49.48,122926,2016-03-24 21:25:04:159
-1.2925,-10.8366,-0.294,1.5257,-9.4998,1.8966,-4.4345,-2.9755,-0.6441,0.7462,-2.7442,1.8559,-9.99,41.69,33.44,55.02,72.33,-55.07,123026,2016-03-24 21:25:04:259
-1.5782,-0.7618,-0.5929,0.9652,-9.445,2.4557,-1.4268,1.2108,-2.8902,1.1714,-3.7549,1.9917,-0.51,43.69,31.55,17.46,74.39,-21.46,123126,2016-03-24 21:25:04:359
-1.2479,-16.5488,1.4761,0.7286,-8.8404,4.1817,-3.2057,0.153,-7.207,1.337,-0.876,0.659,16,45.88,17.8,343.56,67.64,-14.44,123226,2016-03-24 21:25:04:459
-1.9521,-18.4196,1.6022,0.8639,-8.9908,3.8197,-2.7844,-8.7326,-2.5938,-0.4055,-0.3564,-0.1661,18.97,46.24,12.36,334.26,66.46,-12.74,123326,2016-03-24 21:25:04:559
-0.2432,-9.2238,-0.4693,0.5692,-9.4311,2.627,-1.9081,-6.1615,-2.0894,-1.1303,1.4285,-0.0504,18.45,46.18,14.92,334.61,74.09,-12.22,123426,2016-03-24 21:25:04:659
5.2644,-1.2121,-9.3502,0.685,-9.5279,2.218,-0.828,0.0176,-2.2568,-0.5448,0.2395,-0.2896,17.33,44.51,18.83,339.49,74.09,-12.22,123526,2016-03-24 21:25:04:759
0.8766,-17.8096,4.9518,2.4131,-9.42,1.2694,-3.5391,-1.3009,-1.6752,-1.84,3.1384,-2.2708,9.03,45.89,26.43,12.39,76.91,-35.84,123626,2016-03-24 21:25:04:859
-4.2667,-9.3048,1.0407,3.2755,-9.1785,1.0941,-3.2842,-9.6698,3.4178,-0.8413,1.9007,-1.6701,0.32,43.38,32.23,50.94,69.38,-71.53,123726,2016-03-24 21:25:04:959
-2.4674,-9.9283,0.213,2.5091,-9.3686,1.4508,-6.5656,-2.5297,0.0215,1.2646,-3.1504,1.7057,-4.62,42.84,34.68,56.94,69.29,-69.21,123826,2016-03-24 21:25:05:059
-2.1173,-1.5774,-3.7592,1.6256,-9.2593,2.7915,-4.1675,7.7294,-7.8263,1.1158,-2.5517,1.609,13,46.16,21.3,7.05,72.17,-42.49,123926,2016-03-24 21:25:05:159
-4.8777,-19.2782,1.7758,1.4895,-9.2758,2.8128,-2.0789,2.3009,-3.1759,0.1746,-1.1002,0.0806,19.1,44.9,15.82,345.66,71.06,-27.9,124026,2016-03-24 21:25:05:259
-0.2407,-15.2154,0.2041,1.4368,-9.2651,2.8748,-1.7955,-8.1963,-1.5141,-0.547,2.4464,0.1108,19.16,45.91,13.01,341.84,70.87,-26.55,124126,2016-03-24 21:25:05:359
0.393,-6.2797,0.2724,1.0757,-9.4122,2.5346,-1.0519,-5.4097,-2.2518,-0.7709,1.9747,-0.3364,18.94,45.71,17.58,346.85,70.87,-26.55,124226,2016-03-24 21:25:05:459
5.203,-5.1651,-10.8188,1.3656,-9.3751,2.5324,3.2186,4.4911,-9.103,-0.8422,6.0798,-1.8162,13.85,45.48,21.02,354.02,73.82,-24.97,124326,2016-03-24 21:25:05:559
-1.3134,-17.2844,5.2048,2.4972,-9.2984,1.8636,-0.8735,-2.8937,-7.5058,-2.5998,0.8091,-2.9608,4.15,45.47,26.43,29.9,71.47,-53.27,124426,2016-03-24 21:25:05:659
-7.0066,-8.263,-4.2128,3.3828,-9.0966,1.4065,-9.2569,0.2796,-1.8149,0.4143,-1.4507,0.9334,-11.85,40.19,32.84,64.92,68.06,-67.42,124526,2016-03-24 21:25:05:759
-0.0891,-10.816,1.4216,2.4148,-9.4551,0.9696,-7.0978,-3.3882,-2.0663,-0.1162,-4.4212,2.4597,-5.16,42.61,33.43,59.95,74.61,-68.12,124626,2016-03-24 21:25:05:859
-0.6203,-2.6277,0.195,1.8548,-9.3424,2.3345,-1.5246,6.9809,-1.7571,1.7672,-4.0165,1.0594,7.62,42.05,33.46,35.27,78.47,-56.61,124726,2016-03-24 21:25:05:959
-2.8995,-18.3858,-4.6342,1.8114,-9.0172,3.4028,-2.6232,3.2016,-3.2916,3.3163,-2.6509,0.021,17.89,43.6,24.81,354.78,66.85,-28.03,124827,2016-03-24 21:25:06:060
-0.7357,-14.192,1.9975,1.4214,-9.3833,2.4704,-2.094,-7.5889,-3.9643,-1.1795,0.6855,-0.2993,20.21,45.97,9.5,338.41,73.1,-29.92,124926,2016-03-24 21:25:06:159
0.9864,-5.8579,0.6499,1.3449,-9.5237,1.9135,-2.0036,-6.2595,0.3994,-0.6906,-0.7008,0.1345,19.06,46.01,13.87,344.43,73.1,-29.92,125026,2016-03-24 21:25:06:259
1.4258,-7.1752,-14.206,1.9363,-9.4099,1.9687,2.7382,5.5834,-12.7109,0.0608,2.907,-0.8785,18.42,45.32,18.16,354.7,76.9,-37.72,125126,2016-03-24 21:25:06:359
0.1262,-17.5121,5.1014,3.0229,-9.1499,1.82,-4.7367,-1.6839,-1.3872,-0.7689,4.4836,-2.5098,13.15,45.62,22.76,18.88,68.91,-58.95,125226,2016-03-24 21:25:06:459
-3.8374,-9.7975,1.5923,3.5175,-8.9552,1.8977,-7.105,-2.0029,-2.8656,0.2958,1.2309,-0.4514,-5.31,41.26,33.83,52.35,65.69,-65.68,125325,2016-03-24 21:25:06:558
0.1526,-7.4244,-0.4641,2.8036,-9.1969,1.9306,-5.9212,-1.7373,-0.5276,0.7745,-2.1598,1.2064,-9.59,41.86,33.04,55.31,65.95,-61.65,125427,2016-03-24 21:25:06:660
-1.3763,-7.4515,-2.9225,2.0176,-9.0715,3.1317,-2.4749,5.9516,-3.234,1.8744,-3.0828,1.2121,6.09,45.23,27.59,13.59,67.67,-32.79,125526,2016-03-24 21:25:06:759
-2.2565,-13.9302,1.9128,1.751,-8.9989,3.4821,-3.754,1.7372,-6.9146,1.4159,-0.6796,0.7214,12.57,47.18,19.68,359.86,67.67,-32.79,125626,2016-03-24 21:25:06:859
1.1616,-13.8383,-0.5755,1.6413,-9.0285,3.4588,-1.8818,-5.1622,-3.1366,0.4369,-0.6777,0.1885,17.73,46.02,12.83,343.41,67.02,-25.39,125726,2016-03-24 21:25:06:959
-0.0317,-7.5508,1.0592,1.7874,-9.2556,2.7037,-0.6454,-5.6289,-2.4653,-1.0163,-0.7754,-0.1003,18.99,45.57,10.87,340.21,67.02,-25.39,125827,2016-03-24 21:25:07:060
-0.712,-4.5741,2.6568,1.9449,-9.4504,1.7543,-2.7072,3.4588,-0.6538,-0.899,1.655,-0.5048,18.01,44.58,16.92,357.06,73.76,-42.33,125927,2016-03-24 21:25:07:160
-4.8817,-11.7784,4.7152,3.572,-9.1179,0.5244,-7.5761,-3.9274,5.158,-2.2104,2.0736,-1.8496,7.5,45.81,26.62,34.71,72.5,-64.63,126026,2016-03-24 21:25:07:259
-4.2277,-10.6719,-0.6603,3.8082,-9.0345,0.2157,-4.2604,-7.9181,4.4384,-0.7145,0.0284,-0.6068,-1.03,43.14,32.76,59.44,68.4,-81.65,126126,2016-03-24 21:25:07:359
-0.2695,-8.1761,0.4532,2.698,-9.425,0.2446,-3.9798,-0.729,1.0868,0.8288,-3.4327,1.2128,0.23,40.78,34,62.93,69.66,-84.52,126226,2016-03-24 21:25:07:459
-1.9654,-3.7845,1.252,2.5593,-9.4389,0.726,-2.3913,2.6712,-0.0554,1.8551,-3.7808,0.5145,7.91,42.07,30.92,45.73,74.26,-74.16,126326,2016-03-24 21:25:07:559
-0.2332,-8.1581,-2.504,2.4576,-9.2541,2.1197,-9.2541,-3.3026,-5.5779,1.4587,-1.9903,0.5166,17.06,45.38,12.57,3.72,71.61,-58.59,126427,2016-03-24 21:25:07:660
-1.3467,-19.3896,2.3496,2.0831,-9.3168,2.2426,-1.8815,-2.2575,-4.8214,-0.2289,2.0134,0.2106,19.58,45.21,6.21,341.26,71.81,-42.89,126525,2016-03-24 21:25:07:758
1.1104,-5.4411,-0.1452,1.8017,-9.5487,1.3219,-1.09,-1.1997,-1.1477,-1.2274,0.8845,-0.2872,18.66,44.1,17.12,355.2,74.61,-41.35,126626,2016-03-24 21:25:07:859
5.4038,-1.7514,-2.9726,1.8343,-9.5481,1.2804,1.1806,6.3407,0.2622,-0.4398,3.9579,-0.3602,18.47,44.68,21.52,10.83,76.83,-53.73,126726,2016-03-24 21:25:07:959
-1.8024,-19.4222,4.2003,3.9311,-8.9707,0.4936,-6.5819,-6.8292,4.085,-0.7459,1.5098,-1.7793,2.74,42.76,32.69,53.61,66.17,-82.84,126826,2016-03-24 21:25:08:059
-2.8948,-9.8521,1.4695,4.0187,-8.9192,0.6844,-5.0001,-5.4221,0.5796,0.4634,-0.7216,0.1839,-6.26,40.94,35.87,64.82,65.44,-80.34,126926,2016-03-24 21:25:08:159
-0.7204,-3.5502,0.036,2.6023,-9.3692,1.2715,-4.096,-2.2579,-1.5752,1.6945,-3.6397,1.2635,5.92,42.67,29.9,45.09,69.76,-75.37,127026,2016-03-24 21:25:08:259
-2.1637,-7.7299,0.228,2.5797,-9.1951,2.2283,-3.4027,5.801,-2.0984,2.8983,-3.0688,0.7182,13.44,44.68,22.47,12,69.66,-49.18,127126,2016-03-24 21:25:08:359
-1.2587,-16.8112,-0.6326,2.2037,-9.0574,3.0458,-3.3798,-4.4715,-7.4565,-0.5858,0.2993,0.0148,19.59,45.52,7.52,341.52,67.46,-35.89,127226,2016-03-24 21:25:08:459
0.0584,-11.841,0.7395,2.0092,-9.2833,2.4401,-3.0256,-8.6026,-1.5884,-1.3389,1.152,-0.0042,19.92,44.67,8.75,342.57,67.46,-35.89,127326,2016-03-24 21:25:08:559
0.6699,-4.4001,0.8596,1.8302,-9.5556,1.2295,-1.3184,-1.6995,-0.6596,-0.7405,-0.5432,-0.3394,20.66,42.6,17.8,5.07,77.01,-56.11,127426,2016-03-24 21:25:08:659
0.0318,-6.8148,-12.3511,2.9308,-9.2622,1.3391,-4.1241,1.269,-7.3533,-1.2708,11.1057,-1.4824,19.6,43.23,18.26,6.07,77.01,-56.11,127526,2016-03-24 21:25:08:759
-3.1472,-18.0574,-1.4789,3.9442,-8.9208,1.0164,-4.4133,-5.8198,4.931,-1.9773,-0.4247,-2.405,6.65,44.05,26.9,34.87,70.82,-65.44,127626,2016-03-24 21:25:08:859
-4.4132,-11.5226,3.2273,4.0745,-8.8578,1.0532,-6.9141,-6.3261,-3.5345,0.6772,-2.3313,0.6754,-6.91,41.82,32.38,59.69,64.59,-75.51,127727,2016-03-24 21:25:08:960
-0.3015,-2.2483,-1.1393,2.487,-9.2981,1.8791,-4.1408,0.3281,-1.4954,1.0964,-0.9526,1.8307,-0.14,43.91,30.78,37.96,71.47,-52.93,127826,2016-03-24 21:25:09:059
-0.2847,-9.6371,-0.5354,2.2633,-9.0821,2.9262,-4.6098,0.9251,-9.5021,1.9154,-3.1874,1.0029,11.81,46.57,21.53,6.52,68.5,-39.17,127926,2016-03-24 21:25:09:159
-1.1128,-11.2974,0.8306,2.1328,-9.0807,3.0269,-3.8814,-4.4673,-0.855,0.0843,-1.5518,0.5365,17.96,46.8,13.19,350.47,67.84,-37.72,128026,2016-03-24 21:25:09:259
0.2562,-13.4972,-0.1979,1.5495,-9.2228,2.9513,-0.8522,-8.0538,-2.341,-0.4746,1.9435,-0.2059,19.42,47.22,9.48,338.31,70.13,-27.7,128126,2016-03-24 21:25:09:359
4.355,-1.8034,-6.2453,1.3178,-9.3464,2.6606,-0.7194,-3.6593,-2.1913,-1.0466,1.5453,0.0289,19.06,45.61,13.62,342.32,72.38,-26.35,128226,2016-03-24 21:25:09:459
-1.2033,-7.0475,0.7246,2.7237,-9.1498,2.2436,-3.6177,1.855,-2.6115,-1.2328,3.2346,-2.3521,13.71,46.28,20.88,10.59,68.91,-50.52,128326,2016-03-24 21:25:09:559
-1.6093,-14.9676,2.6602,3.8651,-8.863,1.6365,-4.3007,-1.0566,0.8201,-1.3973,0.6124,-2.1839,3.19,46.17,27.66,37.52,64.66,-67.05,128426,2016-03-24 21:25:09:659
-3.993,-11.8917,2.1375,3.5651,-9.0681,1.1091,-5.8948,-1.2054,-0.5684,0.4527,-1.628,0.9583,-5.73,42.26,32.48,56.49,64.03,-73.41,128528,2016-03-24 21:25:09:761
-0.4335,-5.4961,-0.2566,2.7322,-9.3032,1.4683,-5.1316,-1.8108,0.0861,0.962,-1.7406,1.4451,0.17,42.79,31.88,45.22,71.56,-61.75,128627,2016-03-24 21:25:09:860
0.4714,-4.9579,0.0402,2.5715,-8.973,3.0071,-4.7718,6.4239,-11.2832,2.0828,-3.9186,1.0635,12.86,45.64,21.23,5.26,66.2,-40.54,128726,2016-03-24 21:25:09:959
-2.8077,-19.4028,3.8327,2.3696,-9.132,2.6762,-2.5702,-0.9755,-1.1981,-0.0671,-1.9309,0.8356,18.85,45.36,12.31,350.04,66.2,-40.54,128826,2016-03-24 21:25:10:059
0.2195,-12.2393,0.0365,1.8905,-9.2107,2.7857,-2.4627,-4.6325,-2.1333,-0.3942,2.063,-0.3432,20.47,45.27,12.21,344.48,69.92,-34.16,128925,2016-03-24 21:25:10:158
1.5269,-4.4553,1.0665,1.6227,-9.2855,2.705,-1.796,-4.1127,-2.4917,-0.4015,1.9652,-0.2041,18.61,44.82,16.59,350.93,69.92,-34.16,129026,2016-03-24 21:25:10:259
0.8521,-7.5482,-4.2552,2.5357,-9.0932,2.656,-1.0755,1.2245,-7.4852,-1.6335,3.5204,-2.6604,8.11,45.06,23.05,15.11,68.01,-43.67,129126,2016-03-24 21:25:10:359
-5.2525,-17.8816,-0.4415,3.7839,-8.7802,2.1817,-4.748,-3.5685,2.5129,-0.9384,0.4962,-2.3395,-1.4,44.16,28.94,38.87,63.55,-60.03,129226,2016-03-24 21:25:10:459
-2.5498,-13.3085,1.0135,3.1553,-9.058,2.0412,-5.9526,-2.886,-2.2407,0.3359,-2.3327,1.793,-9.19,43.69,31.21,49.2,62.69,-59.96,129326,2016-03-24 21:25:10:559
-2.1103,-0.8504,-2.511,2.4397,-9.2521,2.1487,-2.9866,-2.0657,-1.0172,1.3581,-3.622,1.9154,0.13,44.54,30.67,38.44,67.47,-57.1,129427,2016-03-24 21:25:10:660
-0.3551,-9.2582,-0.7229,1.3487,-9.1731,3.1946,-4.7674,4.5887,-9.853,0.4943,-1.2254,0.9159,16.02,44.65,17.12,353.25,69.19,-32.33,129526,2016-03-24 21:25:10:759
0.4816,-15.883,-1.2064,1.7153,-9.1476,3.0903,-2.576,-4.6795,-2.8588,0.44,-2.6752,-0.1434,20.61,43.38,14.8,339.31,69.29,-22.89,129627,2016-03-24 21:25:10:860
-1.1234,-10.2219,-0.1845,1.7931,-9.3384,2.3976,-2.235,-5.8129,-2.3876,-0.8369,2.4206,-0.3003,17.52,44.15,17.08,353.1,69.77,-35.92,129726,2016-03-24 21:25:10:959
5.726,-1.7383,-7.9024,2.362,-9.3453,1.8045,1.659,5.8187,-7.2265,-1.2624,4.2871,-1.9215,14.52,45.9,23.33,4.91,73.66,-40.14,129825,2016-03-24 21:25:11:058
-3.7959,-8.9259,3.741,3.2779,-9.1023,1.6043,-5.795,-0.0074,-2.5338,-1.8071,2.2946,-2.1191,5.19,45.84,26.59,34.32,68.15,-63.92,129926,2016-03-24 21:25:11:159
-3.8539,-7.0912,-0.3076,4.0017,-8.8755,1.1756,-6.812,-3.8129,-1.1875,0.3288,-1.9573,0.6385,-7.68,41.38,33.24,58.9,64.56,-71.16,130026,2016-03-24 21:25:11:259
-1.4897,-11.9495,1.0017,3.2602,-9.1856,1.0804,-6.8582,-4.4917,0.4819,1.016,-2.7088,1.8771,-2.4,42.77,33.29,54.25,69.5,-71.67,130126,2016-03-24 21:25:11:359
-3.5993,-4.0452,-6.4582,2.0002,-9.2232,2.6651,-4.3337,5.6973,-5.7957,1.4811,-0.8583,1.7226,12.29,44.92,20.13,16.34,71.43,-56.48,130226,2016-03-24 21:25:11:459
-1.1091,-13.5335,0.5632,1.5547,-9.2089,2.9917,-2.999,2.6529,-6.4796,1.4811,-0.8583,1.7226,12.29,44.92,20.13,16.34,71.43,-56.48,130326,2016-03-24 21:25:11:559
-0.2832,-12.3436,0.4713,1.8288,-9.3708,2.2392,0.3777,-9.5516,-4.5253,-0.9905,2.1683,-1.2936,19.04,45.17,10.84,342.77,70.56,-31.91,130426,2016-03-24 21:25:11:659
-0.4896,-6.6832,0.7134,1.6914,-9.5274,1.5934,-2.0863,-4.9627,-0.7317,-1.1283,1.3757,0.038,17.52,47.28,14.39,351.76,72.85,-39.24,130526,2016-03-24 21:25:11:759
0.5525,-1.9459,2.3882,1.9189,-9.5382,1.2294,-0.2866,6.4523,0.5446,-0.6829,0.6574,-0.3605,15.05,45.76,22.53,20.95,78.22,-60.7,130626,2016-03-24 21:25:11:859
2.1707,-7.5769,-9.764,2.9979,-9.1333,1.9407,3.3387,2.7518,-11.3234,0.5334,4.0998,-1.069,13.17,44.19,25.13,19.72,68.64,-57.08,130726,2016-03-24 21:25:11:959
-4.1105,-8.7194,-3.0387,4.4967,-8.4704,2.05,-7.5698,-7.2049,-0.1025,-0.6721,0.1299,-1.4805,-8.82,45.5,27.67,48.18,59.74,-65.49,130826,2016-03-24 21:25:12:059
-1.1828,-12.3225,0.1113,3.5844,-8.9634,1.7264,-6.9883,-3.0909,-3.9987,0.7314,-1.0227,1.386,-13.15,43.26,29.15,60.14,66.07,-64.28,130925,2016-03-24 21:25:12:158
-1.3315,0.1009,-1.6028,1.6783,-9.4077,2.2021,-1.3191,6.3631,-2.278,1.398,-3.1512,2.0673,5.49,44.52,27.57,34.9,72.71,-59.64,131026,2016-03-24 21:25:12:259
0.5633,-11.7141,-2.6043,1.3191,-9.2773,2.8917,-1.7383,7.083,-4.3708,1.5947,-1.036,1.2646,14.68,43.97,21.94,353.41,71.09,-24.52,131127,2016-03-24 21:25:12:360
-1.1413,-15.6709,2.5406,1.8783,-9.2496,2.6623,-4.371,-9.0677,-1.5423,0.0053,-1.1647,-0.3073,20.04,44.15,12.42,344.82,70.6,-35.2,131226,2016-03-24 21:25:12:459
-0.6618,-9.8346,0.3852,1.7848,-9.3979,2.1598,-2.6698,-6.6175,0.1257,-1.1514,1.0823,-0.325,19.83,44.71,11.58,347.1,73.4,-39.57,131326,2016-03-24 21:25:12:559
1.74,-1.5676,4.0376,2.0585,-9.4497,1.6239,-1.1293,6.7317,0.0505,-0.7343,1.6304,-0.7239,14.33,45.07,21.58,13.53,74.49,-51.73,131426,2016-03-24 21:25:12:659
-2.0933,-10.5325,1.422,4.7023,-8.5076,1.2958,-5.0855,-5.907,5.0417,-1.1346,1.7227,-2.9152,0.32,45.27,28.08,43.11,60.17,-74.59,131526,2016-03-24 21:25:12:759
-0.7676,-10.9456,0.7058,4.7922,-8.4706,1.206,-5.1817,-9.6832,-1.3914,-0.1355,0.179,-0.5778,-12.25,43.04,30.77,61.18,59.74,-75.87,131625,2016-03-24 21:25:12:858
-0.2786,-8.0973,0.6682,2.8047,-9.3577,0.8583,-2.808,-1.5046,0.5109,1.3439,-3.6035,2.048,-5.86,42.99,33.2,63.24,66.65,-79.93,131726,2016-03-24 21:25:12:959
-3.2733,-2.9921,-6.1469,2.3548,-9.3247,1.9173,-2.7629,4.8842,-2.2953,2.3826,-2.6608,1.2725,4.99,44.84,28.87,45.16,72.6,-72.98,131826,2016-03-24 21:25:13:059
-0.4819,-19.2915,-7.5353,1.7569,-9.3618,2.3323,-3.1816,-1.1386,-4.9585,-0.181,-1.2647,0.4548,16.62,44.85,12.48,348.87,72.68,-36.99,131926,2016-03-24 21:25:13:159
-1.5073,-13.8732,2.0639,1.8695,-9.4663,1.7505,-3.2612,-10.8738,-2.1179,-0.8644,0.3591,-0.3956,19.01,45.18,10.15,344,72.68,-36.99,132026,2016-03-24 21:25:13:259
0.4988,-5.8206,0.7061,1.7672,-9.63,0.5566,-2.7497,-3.5066,1.0975,-1.1547,0.8564,-0.229,18.67,44.96,17.53,19.93,79.11,-72.52,132126,2016-03-24 21:25:13:359
6.5659,-2.3493,-1.9438,2.1465,-9.5398,0.7454,0.4211,6.6145,0.4203,-0.1506,3.668,-0.7949,17.57,44.08,20.79,24.99,79.11,-72.52,132226,2016-03-24 21:25:13:459
2.3241,-13.5141,1.6372,4.6278,-8.2797,2.4899,-0.6962,-2.3825,-4.5328,-0.3735,0.498,-3.4738,-3.07,45.91,27.17,37.18,57.6,-61.72,132326,2016-03-24 21:25:13:559
-1.7965,-11.7254,-3.8552,4.964,-8.1193,2.3675,-8.09,-12.0553,2.6396,0.4354,-0.158,0.4312,-13.91,43.57,28.07,52.09,57.6,-61.72,132425,2016-03-24 21:25:13:658
0.1264,-5.7748,-0.0693,2.9499,-9.1635,1.8706,-3.4238,-1.7151,-3.1876,0.5959,-3.7474,2.6306,-3.11,45.86,25.71,41.08,69.13,-57.62,132526,2016-03-24 21:25:13:759
1.0461,-2.3637,-2.7278,1.7414,-9.3709,2.3076,-1.4895,4.943,-2.259,1.3698,-1.0392,2.3903,6.66,45.96,23.14,25.13,69.13,-57.62,132626,2016-03-24 21:25:13:859
-3.2852,-19.4222,4.2436,1.0117,-9.3454,2.7947,0.6522,0.284,-5.5235,-0.9047,-3.1616,-0.3478,19.16,43.33,14.87,335.16,71.32,-14.08,132726,2016-03-24 21:25:13:959
-0.3631,-10.946,1.4963,1.4876,-9.4644,2.0935,-3.256,-9.8017,0.6339,-0.5467,-0.218,-0.4846,21.39,45.02,11.29,341.53,74.82,-35.4,132825,2016-03-24 21:25:14:058
0.4286,-5.0173,4.6639,1.695,-9.5605,1.3759,-1.9086,-2.2498,0.2059,-0.2664,1.3416,-0.4914,17.49,44.75,16.68,359.25,76.49,-43.94,132925,2016-03-24 21:25:14:158
7.6695,-1.6993,-12.9286,1.9178,-9.4161,1.9571,4.3584,6.9794,-7.0037,0.2241,8.1743,-1.6158,15.72,45.1,20.63,4.95,73.77,-44.42,133026,2016-03-24 21:25:14:259
-5.7389,-19.1062,6.219,4.9237,-8.3468,1.5027,-4.5752,-4.4046,2.7304,-1.72,-0.5181,-3.9483,3.31,47.64,25.22,25.24,73.77,-44.42,133126,2016-03-24 21:25:14:359
-5.0628,-9.5498,-3.8222,4.9256,-8.302,1.7279,-10.6256,-10.3158,2.1048,-0.6932,-0.2233,-2.4138,-5.64,44.73,29.12,48.66,58.34,-73.03,133226,2016-03-24 21:25:14:459
0.6886,-2.5747,0.7897,2.6328,-9.3235,1.5206,-3.6725,-2.6084,-1.7569,0.4284,-3.6351,2.7087,-7.9,44.54,27.1,53.58,71.94,-59.99,133326,2016-03-24 21:25:14:559
0.2903,-5.336,-3.1039,1.7001,-9.3523,2.4112,-1.1598,5.5641,-1.7119,1.269,-4.2659,2.5481,4.44,46.24,26.44,17.88,72.49,-35.19,133427,2016-03-24 21:25:14:660
-0.5287,-19.4222,3.5966,1.7723,-9.2544,2.7178,-0.8786,-1.7238,-5.6693,0.347,-1.117,0.0382,18.89,45.83,13.34,345.98,70.68,-33.11,133526,2016-03-24 21:25:14:759
-0.9064,-11.5871,1.0094,2.1243,-9.3966,1.8336,-0.9693,-9.5821,-0.5798,-1.3604,-1.4045,-1.0317,20.48,45.1,9.94,350.72,73.37,-49.2,133627,2016-03-24 21:25:14:860
0.1137,-1.5405,0.6125,2.0167,-9.5752,0.6466,-2.5878,-0.9758,-0.235,-1.4482,2.1936,-0.1761,18.15,44.46,19.83,22.82,77.53,-72.22,133727,2016-03-24 21:25:14:960
2.1801,-6.2227,-10.1087,3.2947,-8.9725,2.193,-0.6911,1.4746,-9.5488,-0.684,2.7316,-0.6314,16.33,44.44,24.94,30.73,77.53,-72.22,133827,2016-03-24 21:25:15:060
-3.9205,-12.616,-2.1382,4.1247,-8.6347,2.1444,-6.3727,-9.0671,3.8502,-0.8511,0.6246,-2.7563,-2.75,44.86,28.65,41.39,61.7,-62.53,133928,2016-03-24 21:25:15:161
-0.8967,-12.9814,0.5513,3.6023,-8.8867,2.0544,-6.4078,-4.9718,-2.9846,-0.048,0.4713,0.3929,-12.76,42.74,29.67,55.5,61.7,-62.53,134027,2016-03-24 21:25:15:260
-3.2566,-0.7242,-8.6315,2.0728,-9.2105,2.6535,-1.7128,1.5853,-1.4242,1.5944,-3.6138,2.2293,0.2,43.58,27.9,37.43,70.01,-55.22,134126,2016-03-24 21:25:15:359
1.9121,-17.8596,-2.5931,0.975,-9.1044,3.5115,-0.3547,3.9341,-8.4125,0.1375,-0.3533,0.7785,16.24,46.3,15.46,342.31,66.73,-15.83,134227,2016-03-24 21:25:15:460
-1.5295,-12.6856,1.9483,1.6479,-9.3277,2.5395,-0.4589,-8.6076,-2.6265,-1.1439,-2.2863,-0.6033,18.55,45.65,13.19,336.09,68.18,-15.52,134328,2016-03-24 21:25:15:561
