ACCELEROMETER X (m/s²),ACCELEROMETER Y (m/s²),ACCELEROMETER Z (m/s²),GRAVITY X (m/s²),GRAVITY Y (m/s²),GRAVITY Z (m/s²),LINEAR ACCELERATION X (m/s²),LINEAR ACCELERATION Y (m/s²),LINEAR ACCELERATION Z (m/s²),GYROSCOPE X (rad/s),GYROSCOPE Y (rad/s),GYROSCOPE Z (rad/s),MAGNETIC FIELD X (μT),MAGNETIC FIELD Y (μT),MAGNETIC FIELD Z (μT),ORIENTATION Z (azimuth °),ORIENTATION X (pitch °),ORIENTATION Y (roll °),Time since start in ms ,YYYY-MO-DD HH-MI-SS_SSS
1.3953,-10.153,-5.0456,0.2708,-9.4274,2.6873,0.6033,1.0285,-5.4559,1.8624,-1.1934,0.7435,22.75,41.96,14.82,322.76,74.01,-5.75,60803,2016-04-11 18:30:00:086
2.3041,-11.4396,-1.4745,0.0327,-9.5209,2.35,-5.0559,-5.6926,-6.7236,-0.0493,1.928,-0.187,26.18,42.2,8.83,306.51,76.13,-0.8,60903,2016-04-11 18:30:00:186
-2.0042,-12.9184,-0.1203,0.7393,-9.7056,1.1937,0.8205,-4.7165,2.8238,-0.7912,0.6257,-0.6638,23.01,41.56,14.2,323.4,80.38,-13.46,61003,2016-04-11 18:30:00:286
3.7581,-4.4312,-1.6648,1.4439,-9.6803,0.6148,-3.3138,1.6786,-7.8123,-1.0838,2.7619,-1.2775,20.4,41.12,17.08,345.25,81.77,-31.77,61103,2016-04-11 18:30:00:386
-1.4798,-10.1862,0.494,4.4399,-8.5839,-1.6658,-6.371,-5.1047,2.5169,-1.9234,-1.1944,-2.4861,3.35,39.42,29.57,66.27,70.68,-95,61204,2016-04-11 18:30:00:487
-2.8804,-10.7721,-2.1377,4.4344,-8.5569,-1.8128,-4.2964,-4.0015,-4.0961,0.2531,-0.435,-0.1922,0.33,35.9,34.23,77.68,61.08,-110.56,61303,2016-04-11 18:30:00:586
0.5271,-8.5774,-1.8863,1.3667,-9.6331,1.2274,-1.5366,-1.3349,-2.6099,2.3891,-0.681,2.79,3.33,39.63,29.52,65.78,71.17,-94.4,61403,2016-04-11 18:30:00:686
-0.5467,-10.4709,0.823,0.5367,-9.602,1.9195,-0.2578,7.3915,-7.5023,1.174,-3.3878,1.8612,13.25,41.9,21.83,348.6,78.27,-15.62,61503,2016-04-11 18:30:00:786
-0.2523,-15.6195,-1.8721,-0.0441,-9.5354,2.2903,-1.977,-5.8747,-8.2164,-0.5277,1.4159,-0.2052,24.03,43.46,9.37,307.2,76.49,1.1,61604,2016-04-11 18:30:00:887
-1.6627,-10.9911,1.4752,0.316,-9.6837,1.5152,0.2288,-5.1561,-2.2746,-1.1119,-0.3545,-0.6847,22.31,43.53,11.92,314.09,76.49,1.1,61703,2016-04-11 18:30:00:986
3.2682,-5.1224,-0.3199,1.6177,-9.6722,-0.0398,-2.3305,3.1085,-8.1717,-1.3143,4.1776,-1.6794,18.12,43.15,20.82,7.07,84.09,-48.76,61803,2016-04-11 18:30:01:086
1.7697,-9.4077,-2.0684,3.3002,-9.2269,-0.3777,-1.3703,3.3284,2.6116,-1.471,0.5311,-2.976,3.94,40.51,28.47,70.35,80.5,-91.41,61903,2016-04-11 18:30:01:186
-4.5441,-10.1468,-1.289,4.0521,-8.8599,-1.1194,-5.0607,-1.7247,-1.6772,1.5304,-0.1848,1.099,-2.05,32.76,35.73,83.75,64.62,-105.44,62003,2016-04-11 18:30:01:286
-0.8457,-10.5714,-0.3708,0.6505,-9.6405,1.6758,-0.9831,-0.0876,-2.9771,2.5415,-3.6806,2.4945,7.32,41.6,26.7,5.31,79.44,-21.22,62104,2016-04-11 18:30:01:387
-5.444,-8.9047,2.0547,0.1978,-9.2705,3.1921,2.1013,7.0694,-5.4786,2.4921,-0.8918,0.7485,18.45,43.5,18.47,341.56,79.44,-21.22,62204,2016-04-11 18:30:01:487
0.7898,-19.4222,-1.8095,-0.437,-8.8949,4.1062,0.9168,-8.7266,-9.5734,1.3111,0.2909,0.4786,23.73,42.84,7.35,311.95,65.1,6.07,62303,2016-04-11 18:30:01:586
-4.3612,-10.8492,-3.3407,-0.0212,-9.1973,3.4028,3.6953,-4.1026,-3.7926,-1.083,1.0371,-0.2928,24.03,43.14,8.54,313.99,69.7,0.36,62403,2016-04-11 18:30:01:686
3.1357,-3.5089,4.409,1.1212,-9.6172,1.5563,-4.3974,2.8293,-6.7685,-2.1283,2.6457,-1.1142,21.16,41.63,14.74,345.59,78.72,-35.77,62503,2016-04-11 18:30:01:786
1.2338,-5.2675,-1.1701,2.8787,-9.3363,0.847,0.8293,3.318,-0.612,-1.1337,3.1878,-2.8211,15.38,42.71,23.33,2.07,78.72,-35.77,62604,2016-04-11 18:30:01:887
-2.9775,-9.1322,-3.5033,3.6363,-9.0979,-0.4201,-6.853,-7.1464,-1.7727,-0.5884,-0.7799,-0.2095,0.4,35.26,36.47,75.53,68.08,-96.59,62703,2016-04-11 18:30:01:986
1.0426,-9.8806,-2.0573,2.2613,-9.4986,0.9132,-4.2731,-4.739,-3.2253,1.978,0.4712,1.3746,3.37,34.2,36.34,53.12,75.6,-68.01,62804,2016-04-11 18:30:02:087
1.2064,-3.0631,1.7054,-0.0085,-9.135,3.5668,0.4675,5.2436,-3.6512,2.1357,-2.4824,2.1126,12.72,40.83,25.21,348.81,76.59,-12.82,62903,2016-04-11 18:30:02:186
-4.6176,-19.3412,-2.0392,0.0677,-8.5812,4.7465,0.423,1.8594,-4.5823,2.1653,-1.7445,0.6805,21.21,41.42,18.68,330.57,61.05,-0.82,63003,2016-04-11 18:30:02:286
4.9118,-13.3802,3.2998,0.034,-8.9047,4.108,1.553,-6.3955,-4.9019,-1.0205,0.3279,-0.4376,24.32,42.46,10.37,318.31,65.23,-0.47,63103,2016-04-11 18:30:02:386
-0.7933,-6.7586,-9.6427,0.2299,-9.1152,3.6097,0.8487,-5.1231,-0.7392,-0.826,0.3274,-0.5474,22.58,43.1,12.91,322.65,65.23,-0.47,63203,2016-04-11 18:30:02:486
1.8356,-5.8213,-1.0265,1.8334,-9.5155,1.5048,0.215,4.1325,-1.6304,-2.1971,1.9561,-2.6015,15.16,41.82,23.39,13.08,76,-50.62,63303,2016-04-11 18:30:02:586
-0.2036,-13.8458,-5.2174,3.9573,-8.9623,-0.432,-2.3696,2.7526,-1.6639,-0.4211,-1.4704,-0.7949,1.8,34.55,35.42,63.43,68.72,-85.09,63403,2016-04-11 18:30:02:686
-5.8552,-12.7979,-2.0793,2.8117,-9.3698,0.6861,-3.9741,-2.9976,-4.946,2.2471,0.2436,2.0806,2.78,33.95,36.61,70.89,66.05,-96.23,63503,2016-04-11 18:30:02:786
-0.2601,-2.8698,-3.6209,-0.1917,-9.0415,3.7929,1.8762,5.2701,-6.571,2.138,-1.8658,2.3037,13.55,42.14,24.84,338.47,67.22,2.89,63603,2016-04-11 18:30:02:886
-3.4893,-7.9772,-6.3077,-0.6324,-8.4776,4.8889,2.0258,1.4493,-5.5493,1.9827,-0.2513,0.9803,21.2,41.76,15.28,323.25,67.22,2.89,63704,2016-04-11 18:30:02:987
5.2224,-10.6806,1.8109,-0.7719,-8.7921,4.2747,1.1413,-8.1641,-3.5794,-1.1215,-0.5388,-0.2657,25.27,42.58,10.44,315,58.87,11.21,63803,2016-04-11 18:30:03:086
-4.3884,-11.2416,-6.2749,-0.4312,-9.0296,3.8014,2.3555,-4.4804,-0.7491,-0.4788,0.8816,-0.82,24.39,41.59,13.37,315.35,63.71,10.24,63903,2016-04-11 18:30:03:186
2.0252,-5.7638,-2.5378,0.9791,-9.6217,1.6232,2.8888,4.8629,-0.0574,-1.4844,2.245,-2.7837,16.59,40.7,23.75,331.73,73.77,2.73,64003,2016-04-11 18:30:03:286
-3.0323,-11.9862,-1.6746,2.7371,-9.4016,0.5367,-1.9246,2.1256,-3.0915,-2.1827,-1.4085,-2.7519,7.81,40.93,29.07,12.61,78.85,-31.1,64103,2016-04-11 18:30:03:386
-4.9698,-10.9683,-2.385,2.5147,-9.4715,-0.3713,-5.8733,-6.1801,-4.1279,2.4292,0.6174,2.0794,6.07,34.14,35.96,75.08,69.46,-103.2,64203,2016-04-11 18:30:03:486
-1.7123,-6.7216,-0.4241,0.9006,-9.6851,1.2486,-5.8832,-2.6795,-2.9433,2.6429,0.1909,2.5258,10.66,39.02,30.47,62.35,74.98,-98.4,64303,2016-04-11 18:30:03:586
-1.7341,-8.8752,-2.6504,-0.4077,-9.1484,3.5088,4.6796,3.1907,-7.7039,1.7547,-2.6111,1.7531,16.51,39.96,24.05,329.2,74.5,5.39,64403,2016-04-11 18:30:03:686
0.6913,-19.4222,-3.3057,-0.691,-8.9141,4.0288,-6.1068,-7.1654,-3.1216,1.3375,-0.1873,0.123,23.71,41.24,15.14,315.57,68.89,6.63,64504,2016-04-11 18:30:03:787
-1.966,-10.1949,-3.2819,-0.3508,-9.4079,2.7457,2.199,-5.753,-2.1371,-1.4099,0.5473,-0.4918,23.27,42.99,10.69,311.81,67.86,11.14,64603,2016-04-11 18:30:03:886
3.7236,-6.2217,-0.2758,2.1356,-9.557,0.5222,1.4801,3.2495,-0.6517,-1.3792,1.4025,-1.2829,23.12,42.79,12.84,322.54,80.6,-14.09,64704,2016-04-11 18:30:03:987
-2.6643,-16.0631,-1.3108,3.9982,-8.8994,-0.9923,-4.8886,4.4028,-0.4352,-1.7617,-0.1519,-3.4056,6.87,41.39,26.96,57.91,65.16,-103.94,64804,2016-04-11 18:30:04:087
-3.7267,-9.6411,-3.3554,3.7909,-8.8177,-2.0117,-3.8779,-5.4668,-3.7557,0.0624,-0.3202,0.5818,-1.87,34.08,36.89,88.53,58.46,-119.44,64903,2016-04-11 18:30:04:186
0.3884,-7.898,-0.6073,1.976,-9.6029,-0.2224,-6.0541,-2.097,-3.3871,2.6465,1.4863,2.6479,0.11,33.85,35.7,90.53,64.05,-117.95,65003,2016-04-11 18:30:04:286
4.7231,-0.0527,-1.3011,-0.6148,-9.5053,2.3327,4.6276,6.0023,-5.4616,1.814,-1.9648,1.9749,12.76,42.97,22.88,327.49,75.76,14.77,65103,2016-04-11 18:30:04:386
-5.0761,-19.4222,-13.5825,-0.755,-9.0712,3.6488,-8.2558,-6.9942,-2.8179,2.2897,-0.4003,0.2312,19.46,42.6,16.69,321.95,67.67,11.69,65203,2016-04-11 18:30:04:486
3.3792,-13.5787,3.1338,-0.1728,-9.3375,2.9918,3.0336,-4.6268,-0.3305,-1.0574,0.8018,-0.6698,20.36,44.42,11.69,318.99,72.21,3.3,65303,2016-04-11 18:30:04:586
3.6793,-3.2922,-0.6604,0.433,-9.5791,2.0553,-0.6262,0.9309,-9.8993,-1.2684,0.7983,-1.1857,17.33,43.44,17.09,327.67,72.21,3.3,65403,2016-04-11 18:30:04:686
-1.8308,-6.5225,0.0906,4.0318,-8.9392,0.0768,-4.7938,4.2021,-2.5219,-1.6948,-0.8024,-3.379,0.86,41.04,26.93,55.94,65.72,-88.91,65503,2016-04-11 18:30:04:786
-3.7554,-12.4216,-3.1866,4.8309,-8.4474,-1.2137,-5.6764,-6.5876,0.5996,-1.1981,-1.6284,-1.5611,-5.45,37.49,31.68,75.16,59.47,-104.1,65604,2016-04-11 18:30:04:887
-1.6037,-10.5426,1.0647,1.9729,-9.5886,0.5797,-6.6871,-3.9115,-4.0041,2.1269,-0.115,3.1521,-1.56,38.33,32.25,64.5,77.9,-73.62,65703,2016-04-11 18:30:04:986
4.8216,-5.8005,1.0773,0.2413,-9.6845,1.524,-2.3183,-1.0393,-1.126,1.396,-2.4493,2.8725,8.98,41.11,25.28,351.22,80.95,-9,65805,2016-04-11 18:30:05:088
2.3997,-17.8255,-8.3203,-0.6115,-9.14,3.501,-1.5084,-7.5637,-5.7182,1.0314,-0.4956,-0.1314,23.75,42.33,12.99,312.01,68.75,9.91,65903,2016-04-11 18:30:05:186
-0.3955,-11.683,0.0906,-0.3395,-9.3338,2.9892,-0.4967,-7.9779,-5.1442,-1.3045,0.5906,-0.5634,24.51,43.41,11.92,310.24,68.75,9.91,66003,2016-04-11 18:30:05:286
2.6583,-2.1982,2.6653,0.6752,-9.6957,1.3071,-0.4972,2.0822,-6.4338,-1.9883,1.5121,-1.4061,19.87,44.06,17.5,324.56,76.75,-0.64,66104,2016-04-11 18:30:05:387
-2.8063,-3.8705,0.7214,4.4199,-8.7174,-0.8014,-4.0231,2.3432,-0.4111,-2.3723,-2.0445,-3.5729,-1.14,40.14,30.22,66.61,62.74,-100.28,66204,2016-04-11 18:30:05:487
4.4556,-11.8083,-4.0589,5.1988,-8.0966,-1.8939,-7.1719,-2.9637,2.0811,0.175,-0.9085,-0.4861,-4.37,34.09,37.55,81.16,55.65,-110.02,66304,2016-04-11 18:30:05:587
-1.429,-12.8248,-0.5318,2.5391,-9.4581,0.5179,-5.9037,-4.8511,-3.4186,2.9036,0.0407,2.481,-4.84,34.14,36.59,83.78,61.51,-104.61,66404,2016-04-11 18:30:05:687
1.1085,-0.2348,-7.9169,0.6242,-9.6226,1.7849,-0.6743,-2.2322,-2.2001,2.7607,0.0109,3.8073,1.12,38.66,29.11,59.17,74.68,-78.47,66503,2016-04-11 18:30:05:786
0.5861,-15.8866,-12.2003,-0.637,-9.1451,3.483,1.9622,4.6972,0.9305,2.1836,0.6519,1.1973,23.63,41.89,12.05,310.68,68.83,10.36,66603,2016-04-11 18:30:05:886
1.6941,-10.9337,6.719,-0.2398,-9.3798,2.8517,-0.9149,-4.8043,-0.049,-0.7747,0.4179,-0.9201,26.13,42.86,8.15,304.41,68.83,10.36,66703,2016-04-11 18:30:05:986
3.1376,-3.2142,2.7025,0.8413,-9.7336,0.8481,0.795,2.25,-4.1977,-1.4401,1.6082,-1.0684,20.9,43.98,13.42,348.85,83,-44.77,66804,2016-04-11 18:30:06:087
-2.1526,-4.3188,1.0585,2.5164,-9.4768,-0.1663,2.4066,4.3121,0.9442,-2.0424,0.3033,-1.9746,16,42.7,17.61,2.59,83,-44.77,66903,2016-04-11 18:30:06:186
4.602,-16.4841,-6.0706,5.3802,-7.7043,-2.805,-5.2554,-4.952,2.8932,-1.8509,-2.308,-2.9963,-4.21,39.85,29.73,65.91,51.78,-117.54,67003,2016-04-11 18:30:06:286
-0.3631,-12.4418,-2.8037,5.0496,-8.0874,-2.2947,-1.475,-7.4032,-2.9415,0.8262,-0.2272,-0.2906,-6.48,36.22,33.84,78.15,51.78,-117.54,67103,2016-04-11 18:30:06:386
3.2155,-0.8714,-1.8296,0.8815,-9.7413,-0.7073,-0.6619,-0.5543,-1.462,1.2498,-1.7597,3.6773,1.54,42.92,26.94,114.74,83.38,-128.75,67203,2016-04-11 18:30:06:486
-4.4829,-9.7873,-6.0793,-0.2268,-9.797,-0.37,2.7223,6.8486,-1.7401,0.4054,-3.5916,1.887,13.04,42.61,22.09,86.94,83.38,-128.75,67303,2016-04-11 18:30:06:586
3.5667,-13.4743,4.8708,0.1379,-9.7896,-0.5619,-2.4912,-8.7148,-7.0651,-0.4887,-0.2702,-0.6315,25.13,40.7,12.3,177.87,88.73,117.7,67403,2016-04-11 18:30:06:686
5.6501,-13.284,-6.68,0.0442,-9.7207,-1.295,5.7915,-2.153,-3.0611,-0.8249,-1.5099,-0.0986,25.33,40.93,13.22,104.58,82.41,-178.05,67503,2016-04-11 18:30:06:786
4.2608,-3.489,3.5917,1.0644,-9.5415,-1.9993,6.5661,3.8206,7.2873,-1.078,-1.2971,-1.8439,26.22,40.55,11.82,101.96,82.41,-178.05,67603,2016-04-11 18:30:06:886
-2.487,-12.8312,2.8002,3.0908,-8.3916,-4.0246,-5.3314,-3.2648,6.9854,-0.9379,-3.3904,-3.1642,15.7,45.86,12.69,41.47,58.84,-142.48,67703,2016-04-11 18:30:06:986
3.1852,-10.4956,-7.8158,3.8243,-7.7801,-4.5842,-2.8319,-11.5115,1.1196,0.3082,-2.1669,-2.7039,6.17,49.46,12.53,32.81,58.84,-142.48,67803,2016-04-11 18:30:07:086
-4.2376,-2.8455,2.385,2.13,-8.9522,-3.3898,-3.7444,0.7391,0.8733,2.478,0.5346,2.7409,4.21,49.77,6.96,22.77,65.91,-147.86,67904,2016-04-11 18:30:07:187
1.2876,-2.6546,-3.1465,0.4104,-9.6357,-1.7765,-3.9274,5.8591,3.9688,2.3162,-0.3194,2.6429,11.93,50.01,0.67,47.31,79.29,-166.99,68003,2016-04-11 18:30:07:286
-9.559,-19.4222,3.2024,-1.5723,-9.649,-0.7718,4.6198,5.8264,-5.5666,0.7759,-0.4205,0.9701,23.89,43.11,-11.79,89.04,81.83,141.11,68103,2016-04-11 18:30:07:386
1.09,-13.5538,9.5417,-2.1468,-9.5506,-0.5894,-5.2327,-7.4612,6.2053,-0.6328,-0.5489,0.7382,25.61,40.19,-18.1,113.81,76.88,105.35,68203,2016-04-11 18:30:07:486
6.0478,-10.0037,-4.2389,-2.5409,-9.4711,-0.1086,6.0571,-2.5459,-4.0505,-0.2929,-0.1937,0.2688,28.02,35.49,-23.43,118.48,75.41,98.65,68303,2016-04-11 18:30:07:586
0.652,-3.3615,0.6331,-2.2467,-9.5192,-0.7123,8.3162,4.2206,-3.9672,-1.7781,-2.1182,-0.9207,27.04,33.87,-21.97,125.21,74.97,92.45,68403,2016-04-11 18:30:07:686
-4.7791,-19.4222,-6.8953,0.9009,-9.0671,-3.6258,-4.1927,-6.7447,-0.2755,-2.7938,1.8278,-2.3086,24.95,40.2,-22.54,102.94,76.09,107.59,68503,2016-04-11 18:30:07:786
-2.1147,-6.1969,0.1719,2.9316,-8.2085,-4.4941,-4.2614,-11.8614,0.68,-2.3615,0.7986,-3.534,16.14,47.63,-12.32,9.26,56.83,-146.88,68603,2016-04-11 18:30:07:886
-4.2687,3.2742,1.5847,1.8963,-8.2198,-5.0009,-7.0093,6.1172,6.6327,-0.5952,-2.5512,0.9317,-2.02,52.07,-2.59,354.51,51.23,-149.51,68703,2016-04-11 18:30:07:986
-1.4595,-5.4703,-0.1359,0.6776,-9.374,-2.7999,3.1162,6.0067,0.3027,1.8775,1.4785,1.4717,6.32,50.27,-5.19,9.77,67.32,-163.64,68803,2016-04-11 18:30:08:086
-5.2433,-12.8648,3.1171,-0.7434,-9.4193,-2.6259,1.1846,2.1089,2.5696,0.4595,-0.9071,0.8388,13.36,47.46,-10.56,38,73.84,164.19,68903,2016-04-11 18:30:08:186
2.2738,-13.3596,-10.3299,-2.6913,-9.2928,-1.6036,3.9122,-8.4574,-3.6421,0.749,-0.9357,0.692,20.77,43.06,-16.22,69.45,70.73,132.41,69003,2016-04-11 18:30:08:286
7.4091,-7.289,-7.7467,-2.9858,-9.2875,-0.9991,4.8775,-1.6803,-2.7999,1.2915,0.6837,0.6383,22.53,39.43,-21.4,82.51,71.37,120.79,69103,2016-04-11 18:30:08:386
-1.7797,-6.0431,-2.6599,-2.4116,-9.111,-2.71,3.6527,9.2773,-0.4771,-2.2742,-0.3858,-0.8055,24.06,35.81,-26.29,64.84,68.29,138.33,69203,2016-04-11 18:30:08:486
-0.2895,-18.7733,-8.6864,-0.0774,-8.7662,-4.3952,-4.0617,-7.3072,1.4238,-2.9254,2.7846,-2.4622,21.2,40.53,-21.41,30.13,63.37,178.99,69304,2016-04-11 18:30:08:587
-0.2539,-18.0319,-2.1939,2.0966,-7.822,-5.5309,-2.9498,-9.4187,3.4973,-1.0808,-0.7982,-1.0693,11.38,49.86,-3.56,14.06,56.9,-156.72,69403,2016-04-11 18:30:08:686
-2.058,2.0712,3.4069,0.5838,-8.2465,-5.2749,-5.7995,8.7318,7.0478,0.5387,-1.6543,1.6893,7.84,51.27,-1.11,15.04,57.24,-173.68,69503,2016-04-11 18:30:08:786
-1.6745,-0.2017,-0.6559,0.7832,-9.1452,-3.4529,3.5191,1.7569,1.9791,1.0242,2.2246,-0.1178,18.06,48.05,-6.11,33.92,64.88,-177.86,69603,2016-04-11 18:30:08:886
1.8573,-8.8664,0.4441,-0.1743,-9.1372,-3.5569,-2.5255,6.3031,2.4397,-0.2812,-0.303,1.7565,19.6,46.52,-8.13,32.01,68.84,-167.22,69703,2016-04-11 18:30:08:986
-2.887,-15.9971,-16.8256,-2.1271,-9.3615,-2.0021,3.0207,-10.0802,-2.251,2.5523,0.3309,0.5316,24.07,43.15,-14.36,58.55,66.95,150.1,69803,2016-04-11 18:30:09:086
8.2422,-2.613,-4.8244,-2.6704,-9.3589,-1.2045,4.4299,-2.5027,-5.9319,0.9373,-0.2135,1.2339,26.01,39.76,-20.27,95.57,72.62,114.28,69903,2016-04-11 18:30:09:186
-0.9954,-16.0738,1.3005,-3.3501,-8.5516,-3.4377,5.0598,7.1559,0.3539,-3.7877,-0.1687,-1.0519,28.6,37.25,-20.93,92.22,66.82,115.44,70003,2016-04-11 18:30:09:286
-0.159,-19.4222,-13.9738,-0.0018,-8.4564,-4.9659,-1.723,-11.9548,1.4289,0.1144,0.3099,-1.8407,15.16,50.38,-2.89,28.26,59.58,179.98,70103,2016-04-11 18:30:09:386
-6.5636,3.0349,3.0298,-0.6413,-8.4153,-4.9942,-0.731,-6.9273,4.0667,-0.7339,-3.7291,0.5386,9.92,50.66,-3.03,19.39,59.58,179.98,70204,2016-04-11 18:30:09:487
-3.8277,-2.6546,-6.1639,-2.6089,-8.1305,-4.8228,-2.4788,6.443,2.2678,-0.499,2.4425,-0.2712,14.74,47.02,-4.1,33.94,57.35,152.51,70303,2016-04-11 18:30:09:586
-14.2292,-19.4222,-3.5645,-1.3601,-8.2357,-5.1472,4.2372,2.872,6.8822,0.0871,1.6393,-1.1256,14.54,49.11,-2.18,30.98,57.12,165.2,70404,2016-04-11 18:30:09:687
0.0343,-13.3179,1.5925,-3.8879,-8.5529,-2.8111,2.8136,-4.2381,-1.9274,1.7301,-3.368,0.4085,17.56,47.28,-6.97,40.08,58.37,152.31,70503,2016-04-11 18:30:09:786
5.8287,-8.6814,-4.1552,-4.3497,-8.5814,-1.8998,0.6073,-6.0718,-9.8283,1.7301,-3.368,0.4085,17.56,47.28,-6.97,40.08,58.37,152.31,70603,2016-04-11 18:30:09:886
5.5459,-0.8545,-1.1446,-5.0218,-7.9567,-2.7647,9.2632,6.1915,0.7064,-1.5026,-1.2548,0.5454,18.41,41.42,-20.43,54.05,54.23,118.83,70703,2016-04-11 18:30:09:986
-1.6471,-19.4222,15.059,-4.7784,-7.5797,-3.9856,5.4253,-2.9807,2.6748,-2.9799,-1.5494,-0.0213,18.11,43.44,-18.22,51.59,54.23,118.83,70803,2016-04-11 18:30:10:086
-5.3746,-14.202,2.5437,-1.7531,-8.6759,-4.2221,0.6353,-10.8439,-0.9851,0.7162,2.0407,-3.2957,7.26,49.66,-2.39,15.01,56.29,147.32,70903,2016-04-11 18:30:10:186
-5.17,1.5421,-1.0751,-2.9179,-8.6335,-3.6221,-3.888,-0.7437,5.5765,-0.131,-4.4403,-0.8799,1.07,50.81,-3.56,5.26,62.21,157.45,71003,2016-04-11 18:30:10:286
5.4102,-3.5853,6.8452,-3.9945,-8.3174,-3.3219,0.0495,5.2111,-2.9137,-0.4333,-0.9758,0.2588,1.18,49.79,2.46,357.92,58.01,129.75,71103,2016-04-11 18:30:10:386
-4.2803,-2.4529,-4.7057,-3.2158,-8.6432,-3.3352,6.1484,4.4504,9.0098,0.3895,2.3713,-1.4514,2.6,50.33,3.34,359.03,58.01,129.75,71203,2016-04-11 18:30:10:486
-1.6676,-17.2587,3.6446,-4.4325,-8.4804,-2.146,-1.1835,3.098,-1.1276,0.3399,-1.8381,0.4112,2.35,51.3,0.17,2.08,59.86,115.83,71304,2016-04-11 18:30:10:587
5.1394,-6.3196,-6.6189,-4.9908,-8.2145,-1.9453,8.8562,-1.1628,-3.5164,-0.9678,-0.6236,0.4371,5.46,49.05,-8.44,21.43,58.91,107.11,71403,2016-04-11 18:30:10:686
5.0599,-1.1203,-1.992,-5.058,-7.8992,-2.8618,8.8019,4.9921,0.2851,-2.0731,-0.7033,0.05,6.37,48.54,-7.6,21.45,56.89,111.29,71503,2016-04-11 18:30:10:786
2.8666,-19.4222,-1.3593,-3.5246,-8.0449,-4.362,-0.9175,-12.7879,14.3445,-0.8545,0.3831,-2.2511,2.76,49.4,7.28,352.84,49.62,130.84,71603,2016-04-11 18:30:10:886
-3.9919,-13.0941,0.0424,-2.5369,-8.7608,-3.6032,1.6047,-11.832,-1.6519,1.0118,-0.905,-1.9674,-6.1,47.83,12.3,331.92,55.12,141.06,71703,2016-04-11 18:30:10:986
-4.7787,1.3759,-0.8347,-4.5679,-8.4336,-2.0443,-3.6509,5.9389,4.3681,-0.3356,-3.2454,0.8766,-5.26,46.99,14.91,317.3,63.21,130.5,71803,2016-04-11 18:30:11:086
7.9686,-3.2672,7.182,-4.4839,-8.4759,-2.0551,-2.5835,8.0641,-3.1815,0.6905,1.4508,-0.4859,1.21,44.85,16.79,316.28,59.8,114.62,71903,2016-04-11 18:30:11:186
-6.5284,-12.4695,1.5601,-4.0451,-8.813,-1.4625,-6.9718,-5.6184,2.3291,0.0646,-2.5463,0.3772,-1.48,47.55,15.42,320.16,63.98,109.88,72003,2016-04-11 18:30:11:286
1.9111,-15.1418,0.3843,-4.64,-8.6391,-0.0798,-0.9101,-4.2769,-0.8629,1.048,-3.1855,0.9712,2.39,47.69,15.04,324.17,61.76,90.99,72103,2016-04-11 18:30:11:386
4.6292,-3.0398,-3.7593,-4.9209,-8.4647,0.5515,5.9145,-0.4438,-5.7153,-0.5497,-0.3181,0.55,8.3,46.29,6.25,337.97,59.67,83.61,72204,2016-04-11 18:30:11:487
-4.0834,-16.2172,-2.1063,-5.1736,-8.3275,-0.2386,8.1913,6.2665,-1.3742,-1.9676,0.0181,0.5032,11.03,47.41,8.31,333.75,58.12,92.64,72303,2016-04-11 18:30:11:586
-0.0257,-19.2918,-6.8737,-3.5345,-8.8441,-2.3364,-6.4092,-11.0445,7.6156,0.1431,2.1883,-1.8931,5.19,40.3,22.34,297.9,59.4,108.85,72403,2016-04-11 18:30:11:686
-6.0847,-10.3735,-0.625,-2.5571,-9.2245,-2.1308,1.5872,-11.5797,-1.0846,0.3035,-1.4651,-1.068,-2.12,40.08,23.09,273.54,70.16,129.8,72503,2016-04-11 18:30:11:786
-3.4484,-0.002,-4.3431,-4.079,-8.8584,-1.0299,-3.2232,8.9097,1.7451,-0.041,-1.0517,1.4366,7.07,41.63,22.88,265.17,69.87,117.83,72603,2016-04-11 18:30:11:886
-2.5232,-2.6451,1.3408,-3.4188,-9.1348,-1.0186,5.6839,5.8963,3.5003,0.5365,2.3175,-1.7518,13.47,42.35,22.88,271.2,65.39,105.93,72703,2016-04-11 18:30:11:986
-0.8027,-5.2119,-1.7135,-3.9093,-8.9903,-0.2494,-5.2095,-5.9802,0.6834,0.4347,-0.4638,0.5129,7.14,43.22,22.97,279.28,68.67,106.59,72803,2016-04-11 18:30:12:086
-7.5249,-10.2162,-10.4323,-4.2103,-8.5976,2.1271,-1.5259,-3.7446,-10.6344,2.8055,0.0097,0.224,16.95,43.23,14.66,302.3,61.25,63.2,72903,2016-04-11 18:30:12:186
4.4189,-4.6998,-6.6519,-4.2083,-8.5947,2.1428,10.2994,-0.3536,-7.7595,0.3577,-0.6558,0.8344,16.28,47.19,5.42,315.99,61.21,63.02,73003,2016-04-11 18:30:12:286
-8.3259,-19.4222,-0.9682,-2.9275,-9.3595,-0.0225,-0.0216,-3.7347,-1.1306,-2.5038,-0.8706,-1.0443,14.12,46.97,4.88,314.62,65.15,69.88,73103,2016-04-11 18:30:12:386
-4.0762,-18.8913,-4.8878,-1.6212,-9.6167,-1.0303,-11.6498,-9.9574,2.3108,-1.8772,1.2996,-2.3328,8.23,45.79,11.87,236.1,78.7,122.44,73203,2016-04-11 18:30:12:486
-4.7953,1.4512,1.6259,-0.9661,-9.6476,-1.4702,-4.9759,2.2937,0.9207,-0.3478,-0.5545,-0.161,-9.15,41.02,20.75,243.65,80.37,155.66,73303,2016-04-11 18:30:12:586
1.5991,-5.9559,-3.4752,-1.9396,-9.6038,-0.4184,-3.1866,9.2648,1.6162,1.406,-0.1681,1.3447,-6.84,41.31,22.5,247.19,79.67,146.69,73403,2016-04-11 18:30:12:686
-16.9409,-19.3762,-2.5129,-1.2961,-9.6426,1.2289,4.8169,3.1581,0.9712,1.3292,2.4342,-1.207,-6.11,45.49,13.13,330.14,78.71,72.08,73503,2016-04-11 18:30:12:786
-3.7075,-4.2812,2.9089,-2.0694,-9.4368,1.6834,-10.7926,-5.3359,-3.3306,0.8458,-0.0614,0.8621,-7.82,46.74,9.21,357.11,79.51,46.52,73603,2016-04-11 18:30:12:886
-0.3262,-12.6812,-5.4331,-2.4791,-8.7866,3.5805,2.4129,-5.6394,-6.7798,1.7491,0.345,0.0193,-0.22,47.97,3.26,355.85,63.64,34.7,73703,2016-04-11 18:30:12:986
5.6119,-0.607,-3.0899,-2.6392,-8.8316,3.3478,4.6015,1.9517,-9.2489,0.2166,1.5892,-0.3077,0.12,49.37,-3.02,4.99,63.64,34.7,73803,2016-04-11 18:30:13:086
-16.1722,-19.4222,-0.2714,-1.0683,-9.7474,0.1289,-9.1361,-7.12,-8.2284,-3.1483,2.2415,-2.0746,-3.38,50.52,-0.68,9.4,71.6,43.19,73903,2016-04-11 18:30:13:186
-5.149,-11.6742,-2.7416,1.1034,-9.3897,-2.6051,-6.7211,-9.7013,-1.18,-1.639,0.7649,-0.8744,-20.3,46.7,10.46,253.93,80.01,-169.44,74003,2016-04-11 18:30:13:286
-2.9101,2.1051,2.8184,0.742,-9.4548,-2.4952,-3.8051,3.8636,1.8558,0.8381,-0.1009,0.7281,-22.76,44.56,13.79,243.17,73.23,-157.05,74103,2016-04-11 18:30:13:386
-0.5913,-4.4152,-4.0389,-0.4084,-9.7524,0.9462,4.2504,4.0073,-0.2486,1.8948,2.3953,0.1285,-18.44,48.47,-1.87,285.06,86.27,-179.15,74203,2016-04-11 18:30:13:486
-10.1533,-12.9736,1.6484,-1.6095,-9.6285,0.9336,-2.2803,1.0402,-4.1167,0.0501,2.934,2.5412,-17.71,49.01,-10.6,44.06,79.06,59.88,74303,2016-04-11 18:30:13:586
1.6805,-15.2595,-1.6923,-3.4167,-9.1094,1.2313,2.3443,-4.8466,0.4627,2.4727,1.6401,-0.9646,-7.38,49.74,-14.4,34.83,69.78,80.27,74403,2016-04-11 18:30:13:686
1.9326,-7.8791,-8.4331,-3.1681,-9.0797,1.9217,2.2311,-1.9677,-11.4385,1.2354,0.6627,-0.1087,-8.16,46.77,-21.73,53.27,68.26,70.18,74503,2016-04-11 18:30:13:786
3.4433,-0.2176,-4.2743,-2.1894,-9.5417,0.5774,6.2729,8.5576,-4.0233,-2.9446,1.4185,-2.474,-10.73,45.55,-23.46,58.64,76.65,75.23,74603,2016-04-11 18:30:13:886
-3.7699,-17.2849,-6.3442,-0.9348,-9.686,-1.2153,-8.7939,-8.9772,-1.7012,-2.1562,3.5532,-1.3607,-16.79,45.74,-15.57,41.17,76.65,75.23,74703,2016-04-11 18:30:13:986
-5.4962,-3.3558,3.0831,0.7096,-9.4815,-2.4016,-4.4876,-6.3817,-2.3068,-0.0458,2.8388,-2.1041,-20.63,42.29,-17.56,310.64,75.2,-163.54,74803,2016-04-11 18:30:14:086
0.7887,0.8522,2.2761,-0.5058,-9.5543,-2.1519,-7.0401,10.296,6.7903,-1.7483,-2.4073,0.9593,-23.89,40.32,-18.44,305.87,75.2,-163.54,74903,2016-04-11 18:30:14:186
-6.7124,-10.7218,-0.7446,-0.5095,-9.7934,-0.0232,7.8009,0.6179,-1.5626,1.8167,2.0594,-0.4318,-18.98,43.03,-23.36,44.84,87.02,92.6,75003,2016-04-11 18:30:14:286
-5.6416,-14.8322,11.5423,-1.0592,-9.7485,0.1232,-8.7755,-3.3341,-2.7133,0.6677,1.7615,-0.3345,-17.55,37.87,-32.03,55.53,87.02,92.6,75103,2016-04-11 18:30:14:386
-0.8833,-15.9338,-15.3934,-2.6648,-9.0718,2.6021,-1.8555,-5.4707,3.7907,2.547,1.0591,0.8193,-13.75,37.16,-38.06,76,77.23,72.54,75203,2016-04-11 18:30:14:486
4.0085,2.3417,-1.5542,-2.9,-8.6978,3.4797,7.7327,-1.5019,-11.7533,3.6417,1.0591,0.3184,-16.61,34.08,-42.65,94.86,67.68,45.68,75304,2016-04-11 18:30:14:587
-12.3572,-19.4222,-4.757,-1.2539,-9.6448,1.2553,-0.1609,0.3459,-8.052,-1.7729,0.8231,-1.9875,-21.78,35.86,-38.75,97.05,79.58,44.97,75403,2016-04-11 18:30:14:686
-7.5481,-14.2305,6.3799,0.1642,-9.7901,-0.5458,-9.2594,-6.4863,1.5529,-1.0804,3.2583,-0.6744,-18.85,39.97,-16.96,38.3,88.52,92.1,75503,2016-04-11 18:30:14:786
-3.4591,3.0831,4.8924,0.0234,-9.8035,-0.2461,-6.6799,3.7795,-0.1289,0.2545,2.4715,-0.1366,-18.6,41.78,-15.81,306.61,88.56,-174.56,75603,2016-04-11 18:30:14:886
8.8258,-7.9205,1.7229,-1.8873,-9.2059,2.8036,6.0682,4.5848,-1.7743,2.9724,3.532,0.1747,-8.14,40.68,-24.55,103.29,79.11,41.74,75703,2016-04-11 18:30:14:986
-12.4637,-17.762,3.9387,-2.2868,-9.0575,2.9837,3.2278,-1.0397,-3.9677,0.8771,1.9579,0.1202,0.88,36.64,-30.78,116.75,67.46,37.47,75803,2016-04-11 18:30:15:086
-4.1,-16.7775,3.9647,-3.7494,-8.5236,3.0757,-2.8367,-2.666,2.0216,1.0856,-0.1844,0.2612,15.55,30.13,-27.87,134.96,63.86,53.93,75903,2016-04-11 18:30:15:186
4.5741,-6.8068,-3.7601,-4.0016,-8.3085,3.3357,2.4522,-9.3217,0.2896,1.3458,2.7017,-0.0929,17.48,26.45,-31.37,139.89,60.36,50.64,76003,2016-04-11 18:30:15:286
1.908,-0.9935,-8.9487,-3.4696,-9.0345,1.5845,5.7138,6.5156,-7.486,-1.527,1.623,-1.8086,21.09,23.76,-31.94,135.18,67.11,65.45,76103,2016-04-11 18:30:15:386
-9.1528,-19.4222,7.0726,-1.9826,-9.5923,-0.476,-5.3959,-6.1816,-4.2769,-3.0061,2.2579,-2.5977,21.76,28.37,-25.27,141.52,67.11,65.45,76203,2016-04-11 18:30:15:486
-3.8391,-9.6006,0.7822,1.0048,-9.482,-2.2918,-4.255,-8.8604,-3.9064,-1.7964,-1.2679,-1.0525,14.94,42.51,-6.08,27.13,75.22,-156.33,76303,2016-04-11 18:30:15:586
-2.1337,0.1066,0.1959,-0.1021,-9.4279,-2.697,-3.5352,3.2925,4.4559,0.2405,-2.2459,1.8329,12.81,43.89,-0.91,33.84,75.22,-156.33,76403,2016-04-11 18:30:15:686
-2.6279,-0.462,-5.6851,-1.5459,-9.4961,-1.8983,2.3875,3.0995,-1.8816,0.3392,2.6735,-0.6197,23.41,39.56,-6.22,86.32,75,142.45,76503,2016-04-11 18:30:15:786
-0.3094,-13.2988,1.6932,-1.3974,-9.3613,-2.5658,-1.6225,5.4276,0.9205,-1.7904,-0.1761,0.7992,23.3,41.69,-2.33,80.11,72.67,151.43,76603,2016-04-11 18:30:15:886
-6.4279,-13.6432,-8.0751,-2.8421,-9.2268,-1.7201,4.2079,-5.433,-1.9557,1.7813,-2.0721,0.408,28.28,38.93,-5.43,110.15,70.2,121.18,76703,2016-04-11 18:30:15:986
8.8003,-4.9645,-3.0437,-3.5951,-8.9612,-1.7153,12.5263,3.7594,-1.87,-1.1331,-1.731,1.0559,28.86,39.43,-13,98.27,70.2,121.18,76803,2016-04-11 18:30:16:086
-3.0165,-16.031,1.31,-3.0839,-8.7686,-3.1261,4.4598,3.5438,2.7901,-2.155,-1.2982,-0.2796,27.88,39.4,-10.91,76.03,63.4,135.39,76903,2016-04-11 18:30:16:186
6.7343,-19.4222,1.8971,-0.4125,-8.7267,-4.4547,3.3038,-12.1484,4.7588,-1.6102,0.2618,-2.7257,26.45,44.86,2.01,57.11,62.86,174.71,77003,2016-04-11 18:30:16:286
-7.9084,-4.2402,2.0484,-1.0882,-8.8831,-4.0095,-5.6576,-5.5193,4.3006,0.7534,-2.9301,-2.2158,18.08,48.1,4.33,52.41,64.93,164.82,77103,2016-04-11 18:30:16:386
7.3481,-3.0837,3.3176,-4.2349,-8.3693,-2.862,-1.5888,5.9894,-0.6104,-0.0706,-3.2581,1.7482,11.7,48.52,-2.51,26.47,58.59,124.05,77204,2016-04-11 18:30:16:487
-12.7786,-13.1406,0.333,-4.4609,-8.3009,-2.7139,5.8469,2.9365,3.3788,-0.4966,-0.507,0.0676,15.33,46.66,-4.53,36.38,57.83,121.32,77303,2016-04-11 18:30:16:586
-4.3989,-17.3504,8.3467,-5.3442,-8.2225,-0.0169,2.4162,-6.0078,-3.3597,1.2766,-2.7,0.5835,13.05,47.73,-5.61,21.58,56.98,90.18,77403,2016-04-11 18:30:16:686
3.7675,-10.625,-3.4139,-5.3679,-8.1213,1.1833,0.0104,-9.1292,5.1906,0.8276,-2.6414,0.2622,13.39,46.64,-9.64,26.38,55.91,77.57,77503,2016-04-11 18:30:16:786
2.2464,-3.6028,1.4341,-5.2886,-8.2287,0.6995,10.4727,5.9352,-0.7821,-1.8445,-1.8636,-0.055,11.78,46.62,-17.11,48.09,57.04,82.47,77603,2016-04-11 18:30:16:886
1.768,-19.4222,8.8735,-4.4753,-8.7148,-0.4404,1.0428,-5.6258,2.7382,-2.6465,-1.1573,-1.332,8.73,46.13,-14.76,47.59,62.71,95.62,77704,2016-04-11 18:30:16:987
-3.6884,-13.0461,2.0569,-1.6544,-9.6128,-1.0132,-0.3878,-9.4329,5.2374,-0.4269,-2.8523,-2.3516,-7.22,49.08,-7.14,8.98,71.61,112.34,77803,2016-04-11 18:30:17:086
-6.1348,0.789,-5.6325,-1.829,-9.6198,-0.5338,-5.0635,0.0532,2.7429,-0.1428,-4.8528,-0.2911,-14.86,46.48,0.84,337.65,78.59,121.49,77904,2016-04-11 18:30:17:187
4.4272,-2.7183,6.2237,-2.6178,-9.4174,-0.7942,-0.7371,8.2896,-1.3649,-0.1704,1.2788,-0.8495,-4.55,46.71,14.37,312.91,73.8,106.88,78003,2016-04-11 18:30:17:286
-0.8158,-10.7223,3.8322,-3.2121,-9.2229,-0.8896,-5.3499,-6.471,-2.4674,-0.8359,-3.3173,0.6628,-3.72,45.56,14.9,303.02,75.19,111.58,78103,2016-04-11 18:30:17:386
-2.8831,-12.9462,-8.6194,-3.1148,-9.29,0.4051,0.1874,-3.5208,4.4776,2.163,-0.89,-0.028,0.89,45.84,18.45,300.87,70.13,105.48,78203,2016-04-11 18:30:17:486
4.6927,-1.7328,-1.185,-3.5784,-9.1115,0.5874,2.5106,-3.5653,-10.8624,-1.8942,-1.9655,0.2119,8.69,47.29,7.41,320.59,68.3,80.68,78303,2016-04-11 18:30:17:586
-0.4163,-7.6,0.5665,-3.2928,-9.2001,-0.8284,7.7365,8.0102,1.2238,-3.02,-0.4495,-0.6446,10.96,46.27,11.67,289.51,69.74,104.12,78403,2016-04-11 18:30:17:686
-3.8083,-19.4222,-0.8482,-0.8553,-9.3296,-2.898,-3.6759,-11.2102,1.4353,-0.5261,0.3644,-2.5925,1.41,42.21,24.67,260.76,70.2,134.06,78503,2016-04-11 18:30:17:786
-7.1518,1.6346,3.523,-0.5578,-9.2329,-3.2578,-4.1746,-5.8965,1.4587,-1.1106,-3.5775,-0.2997,-4.79,40.19,27.02,221.34,70.3,170.28,78603,2016-04-11 18:30:17:886
-0.9084,1.3175,1.2172,-2.6618,-9.1476,-2.3253,0.3348,8.5941,-0.9375,0.6064,0.1437,0.3411,9.81,39.38,28.46,207.26,69.21,147.11,78703,2016-04-11 18:30:17:986
-3.1091,-2.3019,-0.0104,-2.4439,-9.2199,-2.2783,3.5738,3.0315,5.2549,-0.2017,1.2766,-0.3829,9.06,39.43,25.48,233.69,70.08,132.99,78803,2016-04-11 18:30:18:086
-2.6972,-6.9704,5.1034,-3.9286,-8.5276,-2.8314,-3.3543,-7.5127,-0.5396,-1.9298,-0.2296,1.981,4.75,39.26,26.21,254.92,64.92,137.04,78903,2016-04-11 18:30:18:186
2.4718,-12.6044,-6.2201,-4.13,-8.8776,-0.5498,2.63,-5.5237,10.2822,1.0279,-3.4276,0.5155,10.28,36.43,28.24,276.42,64.86,97.58,79003,2016-04-11 18:30:18:286
3.6308,-0.6514,-1.9234,-4.1153,-8.8792,0.6276,10.2971,-2.208,-6.6335,-0.442,-2.1954,0.8585,21.52,40.89,11.84,267.55,64.88,81.33,79103,2016-04-11 18:30:18:386
-5.6083,-19.4222,5.2917,-3.3916,-9.1251,-1.183,2.2736,4.3129,-0.5361,-2.9023,-2.6748,-0.8075,25.38,39.92,12.21,256.48,64.88,81.33,79203,2016-04-11 18:30:18:486
-2.5692,-19.3711,3.3568,0.247,-9.2607,-3.217,-4.0087,-11.1599,-0.4988,-1.1124,2.6253,-2.5275,16.88,36.48,25.54,173.35,70.1,150.46,79303,2016-04-11 18:30:18:586
-3.7737,4.5569,1.9561,-0.5176,-9.4111,-2.7081,-5.4943,-2.8406,2.2063,0.2176,-2.2024,0.8098,5.67,36.65,31.93,145.39,69.57,-171.01,79403,2016-04-11 18:30:18:686
4.7724,-6.1204,2.5173,-0.9225,-9.6561,-1.4419,-0.4727,10.3484,-1.5665,2.4461,1.0085,1.2415,13.64,36.48,30.61,159.86,73.67,169.18,79503,2016-04-11 18:30:18:786
-9.2803,-11.0444,-1.321,-2.0377,-9.5926,0.0115,-7.2533,-1.5031,-1.0548,0.7024,-0.788,1.3042,11.51,41.74,22.9,262.87,78.01,89.68,79603,2016-04-11 18:30:18:886
-5.344,-16.7066,2.4625,-3.5138,-9.131,0.6695,-2.6703,-4.2275,-1.3741,0.4106,-2.0174,2.7797,15.96,40.47,21.78,251.91,78.01,89.68,79704,2016-04-11 18:30:18:987
0.4866,-10.9326,-5.021,-4.6129,-8.2145,2.7229,2.5096,-6.944,-11.2818,2.306,0.7986,0.6149,27.52,36.15,15.02,282.17,56.89,59.45,79803,2016-04-11 18:30:19:086
5.1192,-0.8902,-7.4824,-4.6169,-8.3788,2.1565,6.9117,-0.8422,-7.2974,-0.5332,0.5063,0.0701,31.2,37.87,7.98,274.55,56.89,59.45,79904,2016-04-11 18:30:19:187
-14.6111,-18.0727,4.1872,-2.3083,-9.5308,-0.0808,-13.9369,-10.0199,1.5773,-1.1443,2.7439,-1.8087,20.13,41.56,13.57,233.02,76.38,92.01,80003,2016-04-11 18:30:19:286
-5.08,-3.1875,-0.0181,-1.9907,-9.5548,-0.956,-7.5879,-9.2111,-3.7752,-0.8329,2.3908,-0.5718,9.42,43.67,19.17,272.99,76.38,92.01,80103,2016-04-11 18:30:19:386
-0.3285,0.6646,2.7267,-3.3488,-9.212,-0.308,1.5079,10.6788,5.1772,1.9554,0.1273,1.6443,2.23,44.4,26.49,293.13,69.94,95.26,80203,2016-04-11 18:30:19:486
-5.5718,-3.976,-5.1609,-3.3888,-9.1563,0.9216,5.7804,2.9854,-1.809,2.2687,0.9992,-0.4445,4.86,46.32,22.27,293.23,69.94,95.26,80303,2016-04-11 18:30:19:586
-3.8761,-9.6129,0.6635,-3.9861,-8.7838,1.7682,-11.0916,-7.0889,-0.8988,-0.0633,-1.5209,1.718,2.87,48.85,17.57,321.22,69.15,65.31,80403,2016-04-11 18:30:19:686
-9.0045,-11.0371,-5.7767,-4.1145,-8.2187,3.4198,1.5999,-3.1578,-1.0251,2.752,-3.1113,0.8039,10.38,47.45,20.16,323.95,56.94,50.27,80503,2016-04-11 18:30:19:786
6.4924,-3.6015,-3.8558,-3.9995,-7.5155,4.8675,-4.6874,-3.9026,-11.8355,-0.9923,-0.0105,0.6982,18.87,47.61,7.25,323.38,50.03,39.41,80603,2016-04-11 18:30:19:886
-5.4499,-18.6205,1.4019,-3.0276,-9.1862,1.6179,-1.4202,-5.5966,-1.222,-2.8513,0.8738,-0.6219,21.22,45.98,10.56,318.08,50.03,39.41,80703,2016-04-11 18:30:19:986
-7.364,-18.6456,-2.8433,-1.5297,-9.6316,1.0313,-10.7398,-9.8722,-0.2004,1.1305,2.5746,-2.8748,9.17,41.39,29.13,303.48,69.51,61.88,80804,2016-04-11 18:30:20:087
-4.2996,0.0881,-0.5921,-1.0216,-9.7436,0.4358,-6.6585,6.3309,-1.0837,-1.4364,-2.4642,-0.713,-2.77,44.94,25.99,339.32,83.8,30.91,80903,2016-04-11 18:30:20:186
-1.9895,-6.0133,-2.7979,-2.2166,-9.5431,0.4324,-1.1871,7.9539,-1.048,-0.4137,-2.5909,1.9277,-3.11,43,28.55,303.09,76.69,78.96,81004,2016-04-11 18:30:20:287
-8.1653,-17.1644,1.7757,-1.4609,-9.6054,1.3312,-0.5236,0.908,-3.7162,1.666,0.099,-2.3595,14.98,38.01,31.18,283.15,77.56,64.42,81104,2016-04-11 18:30:20:387
-2.7388,-19.4222,-2.8845,-2.0942,-9.4944,1.2814,-5.6906,-4.2845,-0.1737,-0.3286,-0.7319,1.1792,7.53,41.7,28.66,309.11,78.37,47.66,81203,2016-04-11 18:30:20:486
-1.6194,-10.4543,-7.8371,-2.484,-9.2014,2.3095,3.0715,-3.1605,-0.2072,0.1184,-3.6982,0.9734,14.97,36.25,33.02,304.04,69.77,47.08,81303,2016-04-11 18:30:20:586
9.2589,-3.5908,-4.9638,-2.5627,-9.2039,2.2117,-2.5782,-3.8604,-11.7425,0.3988,-1.5831,0.5793,24.45,34.73,29.15,290.62,69.77,47.08,81403,2016-04-11 18:30:20:686
-4.715,-19.4222,7.913,-0.7193,-9.7327,-0.9631,-4.3281,-4.4565,5.4691,-3.2731,-0.5707,-1.9042,32.64,30.74,27.48,251.24,77.03,67.6,81503,2016-04-11 18:30:20:786
-4.912,-15.073,1.5247,0.9542,-9.6224,-1.6341,-5.3528,-10.5029,2.7382,-1.7144,-0.2618,-2.9425,29.39,28.2,32.39,174.05,82.96,143.25,81604,2016-04-11 18:30:20:887
-7.5682,-0.1716,4.2548,0.1765,-9.3559,-2.9337,-8.7213,5.0554,7.0361,-0.9741,-5.0962,0.0166,23.22,31.66,33.06,99.06,74.49,-146.85,81703,2016-04-11 18:30:20:986
2.2272,-6.031,7.1169,-1.6544,-8.9474,-3.6576,-2.9469,8.2502,2.8515,-1.4357,-4.0062,1.2448,33.05,29.05,25.49,137.17,65.84,155.66,81804,2016-04-11 18:30:21:087
-18.7735,-18.7124,9.4097,-2.056,-8.1877,-4.9905,-0.0394,6.7054,5.3478,-1.1037,-0.9906,-0.6079,42.11,24.3,18.91,118.69,59.73,157.11,81904,2016-04-11 18:30:21:187
-7.6276,-14.9925,8.0486,-3.3472,-8.646,-3.1958,-3.2846,-2.1829,-0.6018,2.2658,-0.669,0.5016,42.1,24.71,18.01,124.71,56.59,147.39,82003,2016-04-11 18:30:21:286
8.3616,-10.706,-6.5826,-4.0717,-8.723,-1.8709,-3.0529,-7.1969,-1.2366,1.2021,-2.1295,0.8006,46.34,20.73,0.31,145.15,62.81,114.68,82103,2016-04-11 18:30:21:386
5.3537,0.0172,4.0084,-4.3405,-8.0678,-3.4987,7.296,1.467,-0.9495,-3.2182,-1.2513,-0.8727,43.76,20.88,-13.5,121.18,59.3,115.56,82203,2016-04-11 18:30:21:486
-15.1096,-19.3722,-3.3832,-3.2401,-7.9103,-4.8062,-4.5164,-9.5964,9.7473,-2.6016,0.383,-2.2661,40.92,27.08,-11.93,82.31,53.77,146.01,82303,2016-04-11 18:30:21:586
-6.8549,-15.5933,-3.7945,-0.9086,-7.7616,-5.9247,-5.4208,-8.4302,2.9615,-1.0803,-1.4726,-1.2139,31.01,39.77,-1.39,59.5,54.1,165.16,82403,2016-04-11 18:30:21:686
-2.6664,3.8235,3.0587,-1.9539,-7.6588,-5.8048,-4.4485,8.3214,7.9856,0.2853,-1.7041,0.72,26.39,42.75,0,47.97,52.32,171.28,82503,2016-04-11 18:30:21:786
3.5208,-7.1362,1.2676,-1.4062,-8.84,-4.0058,4.5865,1.2329,3.9106,2.1674,3.7341,-0.9299,29.38,40.27,-9.69,60.77,64.35,160.66,82603,2016-04-11 18:30:21:886
-2.2364,-6.1031,3.9827,-1.5045,-8.8962,-3.8424,-1.929,4.2036,0.4478,-0.3383,0.0365,2.2862,29.98,39.68,-11.63,60.09,64.35,160.66,82703,2016-04-11 18:30:21:986
-5.8999,-17.8054,2.7931,-3.3227,-8.9294,-2.323,-3.6534,-0.4212,5.8854,2.5782,-2.372,0.8068,38.09,30.33,-14.9,103.42,65.58,124.96,82803,2016-04-11 18:30:22:086
3.1852,-5.9245,-5.3356,-3.7013,-9.0254,-1.0064,-0.7697,-7.6029,1.4766,1.1033,0.8838,0.4297,37.95,26.84,-21.18,120.93,66.97,105.21,82904,2016-04-11 18:30:22:187
-1.1927,-1.0838,-5.8153,-2.5826,-9.0843,-2.6414,6.3857,4.2975,-1.9581,-1.2139,0.1625,-0.3926,41.56,21.06,-22.19,126.4,66.97,105.21,83004,2016-04-11 18:30:22:287
-11.4175,-15.382,-8.0177,-1.2382,-8.7871,-4.1743,-10.542,-5.6947,2.8204,-2.2489,1.8615,-2.0661,38.43,23.79,-21.3,92.27,67.87,135.65,83103,2016-04-11 18:30:22:386
-3.7777,-14.7644,-4.8517,1.7834,-8.3497,-4.8242,-7.2066,-9.723,0.1335,0.2055,4.4063,-1.8363,35.97,36.02,3.08,63.71,60.76,-174.77,83203,2016-04-11 18:30:22:486
-3.9649,5.1758,4.5792,1.0214,-8.1302,-5.3877,-4.6075,1.3121,5.2424,-1.514,-0.2246,-0.4269,30.5,40.49,8.91,58.33,56,-169.27,83303,2016-04-11 18:30:22:586
-0.0825,-8.8759,-0.1196,-0.1553,-9.4833,-2.4928,3.8036,0.646,-0.4112,3.8972,1.0314,1.6789,35.33,36.09,8.31,80.92,64.49,174.81,83403,2016-04-11 18:30:22:686
-9.0152,-13.3033,-4.4821,0.0197,-9.5795,-2.0984,-10.9545,-1.3003,6.3345,-0.3433,1.7811,0.5247,35.04,36.88,8.58,72.92,76.74,-161.36,83503,2016-04-11 18:30:22:786
-1.4888,-15.3504,5.475,-1.3124,-9.5735,-1.6722,-5.9188,-4.9469,-0.9364,0.3714,-0.1086,2.049,35.28,34.99,10.51,136.63,77.48,141.87,83603,2016-04-11 18:30:22:886
-2.3044,-8.9836,-6.0901,-2.1818,-9.5566,-0.2844,-4.3777,-4.7432,-9.8197,1.3165,1.36,0.5023,43.97,26.08,2.76,170.79,79.41,101.96,83703,2016-04-11 18:30:22:986
-0.0611,-4.2667,-4.61,-2.0639,-9.4767,-1.4499,5.0092,1.8533,-3.1365,-1.4622,0.8725,0.2769,45.73,24.37,-1.89,136.01,75.1,125.09,83804,2016-04-11 18:30:23:087
-7.8166,-19.1991,10.1526,0.9851,-9.3245,-2.8729,-8.433,-10.3027,6.7568,-0.735,2.3179,-2.6235,42.89,27.55,10.59,110.81,71.7,161.37,83903,2016-04-11 18:30:23:186
-5.7933,-5.8031,4.1227,2.0824,-9.1019,-2.9981,-6.108,-9.539,-3.4941,-0.0636,0.4146,-2.0989,35.65,34.21,16.57,64.47,68.15,-145.22,84003,2016-04-11 18:30:23:286
-5.5624,2.3148,-7.3871,-0.6815,-9.02,-3.7875,-5.0072,12.7889,7.3844,0.7558,-2.2256,1.2886,33.64,35.98,15.42,99.2,66.9,169.8,84103,2016-04-11 18:30:23:386
-1.0488,-8.5841,2.7598,-0.4484,-9.4264,-2.6669,-1.9745,8.4725,-0.5318,1.9749,1.2063,-0.3139,39.77,32.27,9.28,99.1,73.99,170.46,84203,2016-04-11 18:30:23:486
-4.3911,-10.3045,5.6022,-1.4875,-9.5276,-1.7838,-10.968,-5.8998,-1.1991,-0.4394,-2.2511,1.5883,38.36,33.03,9.39,98.87,79.15,175.09,84303,2016-04-11 18:30:23:586
-4.0009,-9.1974,-6.1132,-2.7677,-9.3896,-0.5874,-2.625,-2.337,4.7234,1.4754,-3.7336,1.5422,42.45,28.41,6.87,176.72,73.23,101.98,84403,2016-04-11 18:30:23:686
3.0706,-3.5163,-5.0448,-3.5748,-9.0682,1.0767,0.5664,-0.8992,-5.5124,-0.4664,-0.8149,0.4113,45.99,20.75,-10.85,184.38,67.62,73.24,84504,2016-04-11 18:30:23:787
-8.5344,-19.3834,4.3848,-3.3826,-9.2027,-0.1949,8.1277,2.1408,-5.4578,-2.7036,-0.2271,-0.306,44.94,19.65,-13.11,180.85,67.62,73.24,84604,2016-04-11 18:30:23:887
-3.6345,-19.3916,2.6016,-0.7796,-9.1857,-3.3445,-13.7868,-9.9794,3.2967,-0.957,2.841,-2.487,39.07,30.59,-2.31,120,70.24,131.46,84703,2016-04-11 18:30:23:986
-8.1496,0.678,2.3358,-0.4336,-8.9436,-3.9992,-8.0975,8.1125,5.0877,-0.6601,-3.2252,1.339,27.26,42.43,4.43,60.86,68.33,-172.24,84803,2016-04-11 18:30:24:086
-2.1108,2.0136,1.5854,-1.9285,-8.9374,-3.546,-3.4505,12.8302,5.7826,1.4423,0.4962,1.9841,34.84,36.69,-0.81,70.09,65.78,173.81,84903,2016-04-11 18:30:24:186
-12.8956,-12.8804,-14.9687,-0.44,-9.6551,-1.66,-3.1462,0.4604,-1.9411,0.0272,-1.3131,1.3425,30.03,39.69,-2,88.96,74.21,155.18,85004,2016-04-11 18:30:24:287
-7.8739,-19.1629,-3.1945,-1.7848,-9.5342,-1.4433,-9.5676,-0.9159,4.3492,0.0272,-1.3131,1.3425,30.03,39.69,-2,88.96,74.21,155.18,85104,2016-04-11 18:30:24:387
-4.0266,-13.3958,-4.8431,-3.6385,-9.0055,1.3536,4.1278,-5.9946,2.5989,0.8977,-5.7487,2.0045,36.58,33.39,-0.17,164.13,70.01,100.16,85203,2016-04-11 18:30:24:486
6.7167,-0.5247,-2.685,-3.8216,-8.8377,1.8602,-2.1822,-4.5142,-10.802,2.4604,-0.9424,0.1326,40.67,27.93,-11.35,197.58,64.32,64.05,85304,2016-04-11 18:30:24:587
-4.3753,-11.8756,2.2757,-2.4655,-9.4603,-0.7709,-1.4336,-1.6097,2.2006,-3.02,-1.1978,-1.3585,39.99,25.76,-17.25,131.69,74.73,107.36,85404,2016-04-11 18:30:24:687
-4.3882,-18.3697,-2.3978,-0.9232,-9.6483,-1.4927,-12.6734,-10.0424,0.8807,-2.0098,0.4996,-2.5997,36.13,33.19,-13.24,131.82,74.73,107.36,85504,2016-04-11 18:30:24:787
-7.3695,3.9049,5.632,-0.2163,-9.5196,-2.3454,-6.4268,4.1753,2.7668,-0.9911,-2.4641,-0.8114,25.56,44.61,-2.01,68.21,76.1,174.73,85603,2016-04-11 18:30:24:886
-2.5147,0.1759,-2.2633,-1.6571,-9.4323,-2.1108,-3.3142,15.582,5.73,-0.7533,-3.2652,1.4168,23.35,45.54,-2.46,88.7,74.12,141.87,85703,2016-04-11 18:30:24:986
-13.3038,-17.0608,-11.2055,-0.3861,-9.7858,-0.5097,-1.0345,0.8606,2.4736,1.3983,3.1665,-1.8256,28.17,43.53,-7.25,107.62,86.26,142.86,85805,2016-04-11 18:30:25:088
-7.4098,-19.4222,-1.6427,-1.4464,-9.6024,-1.3682,-9.4125,-2.9336,-3.2514,-0.9639,1.4634,1.2603,26.47,44.42,-7.82,100.01,78.29,133.41,85903,2016-04-11 18:30:25:186
-8.3537,-11.0495,-10.412,-2.9694,-9.291,1.0154,3.7426,-6.1248,3.7632,1.9867,-2.8159,0.7401,32.05,38.38,-9.91,182.61,71.34,71.12,86003,2016-04-11 18:30:25:286
8.4004,-1.8512,-2.429,-3.5069,-9.1509,-0.3646,9.8258,2.9801,-5.2591,-2.2839,-0.6212,0.1694,33.9,32.35,-21.8,152.01,68.12,75.28,86103,2016-04-11 18:30:25:386
-8.2208,-19.4222,9.6185,-2.5317,-9.2079,-2.2305,-0.9243,-2.3248,2.989,-3.2338,-0.2618,-1.7287,32.69,36.07,-17.83,126.8,68.93,95.94,86204,2016-04-11 18:30:25:487
-4.5647,-17.3798,-2.2394,0.1345,-9.4045,-2.7763,-4.5506,-8.7222,1.6394,-0.1823,-1.3177,-1.5962,21.04,46.55,-4.38,48.9,73.53,-177.23,86303,2016-04-11 18:30:25:586
-3.1728,4.5845,3.8074,-1.127,-9.1649,-3.3023,-7.3495,6.9068,5.9826,-1.2353,-4.1619,0.567,15.75,48.98,-3.93,45.51,69.16,161.16,86403,2016-04-11 18:30:25:686
5.7857,-11.3128,9.9361,-1.3169,-9.5599,-1.7449,3.0951,3.2707,0.1843,2.8335,0.9586,-2.6843,19.25,45.83,-4.42,59.05,66.57,142.02,86504,2016-04-11 18:30:25:787
-5.3808,-6.8889,3.7555,-0.5833,-9.7666,-0.6663,-6.8157,-3.681,-4.9722,1.0518,0.3739,0.0619,15.02,48.42,-5.77,93.79,84.82,138.8,86603,2016-04-11 18:30:25:886
-1.4731,-10.874,-1.8038,-3.0572,-9.3108,0.3643,-3.8605,-9.5476,-0.6003,0.6904,-3.1379,1.144,19.41,45.69,-4.17,156.26,71.7,83.21,86703,2016-04-11 18:30:25:986
3.2242,-7.3644,-4.1356,-3.4355,-9.1059,1.2043,0.5828,-2.2365,-3.1858,0.3474,-2.0629,0.9754,21.61,43.37,-9.75,161.32,68.21,70.68,86803,2016-04-11 18:30:26:086
3.2949,-1.183,0.248,-3.8244,-9.0283,0.1845,9.2929,4.3025,-5.0892,-3.3914,-1.3059,-0.5066,23.27,43.37,-16.29,108.83,67.02,87.24,86903,2016-04-11 18:30:26:186
-3.5197,-19.4222,-3.8871,-2.7739,-9.2738,-1.5725,-1.4664,-7.1307,6.8788,-3.0216,-0.3131,-2.8741,18.19,47.13,-6.98,75.98,71.03,119.55,87004,2016-04-11 18:30:26:287
-7.8764,-7.444,1.1773,-0.1145,-9.3646,-2.909,-8.2614,-6.6322,3.96,-1.1321,-4.3232,-1.0305,2.8,51.84,-1.16,10.57,72.73,177.75,87104,2016-04-11 18:30:26:387
-5.7973,2.0121,1.7522,-1.2854,-9.2083,-3.1185,-7.9039,6.8553,5.4061,-1.1321,-4.3232,-1.0305,2.8,51.84,-1.16,10.57,72.73,177.75,87204,2016-04-11 18:30:26:487
-15.3325,-17.2678,-17.7188,-2.3008,-9.2541,-2.2887,7.4165,6.0676,3.3992,-0.9419,-1.2981,1.3775,6.85,50.45,3.95,12.86,70.68,134.85,87304,2016-04-11 18:30:26:587
-3.4502,-7.1899,-0.9898,-3.8078,-8.9795,-1.0194,-4.7429,0.2001,4.9506,-0.5732,-1.4337,2.8108,-0.65,52.41,1.55,350.7,74.63,121.71,87403,2016-04-11 18:30:26:686
-2.2864,-11.7356,2.4143,-4.3809,-8.7737,-0.0024,-1.8109,-7.122,0.8767,-0.4057,-3.8763,1.1064,4.58,49.87,5.55,341.44,63.47,90.03,87503,2016-04-11 18:30:26:786
6.3344,-3.8411,-6.3154,-5.1065,-8.324,0.8971,3.243,-2.6878,-7.9507,-0.4743,-2.0309,1.0079,13.04,48.32,0.58,345.59,60.8,80.28,87604,2016-04-11 18:30:26:887
3.417,0.77,-2.7561,-5.0417,-8.4104,-0.1305,11.4907,4.8087,-4.1645,-2.1627,-1.8804,0.4974,15.23,47.78,-2.29,357.14,58.08,80.04,87703,2016-04-11 18:30:26:986
-6.4233,-19.4222,-11.9292,-2.3377,-8.9864,-3.1543,-4.2032,-10.4936,2.0867,-2.5789,0.3339,-2.8066,11.23,46.6,13.41,18.69,66.4,143.46,87804,2016-04-11 18:30:27:087
-9.1783,-4.7669,1.2769,-2.0696,-8.9181,-3.515,-3.641,-6.7862,4.2993,-1.164,-1.5777,-1.772,2.75,46.72,18.92,294.91,65.42,149.51,87903,2016-04-11 18:30:27:186
-4.9185,3.2285,-0.5117,-4.3836,-8.1381,-3.2749,0.3426,11.6051,2.3477,-0.6678,-1.9658,0.9303,5.51,42.14,24.92,293.15,56.08,126.76,88003,2016-04-11 18:30:27:286
-12.5138,-11.1064,-17.0368,-3.6951,-8.5797,-2.9841,9.3231,-0.1053,5.0252,0.3779,0.2154,-0.8318,9.45,41.29,25.12,269.96,61.03,128.92,88104,2016-04-11 18:30:27:387
-8.4715,-8.7737,-2.2602,-5.5714,-7.8123,-2.0241,-3.4164,-3.0258,2.7817,-0.4189,-2.5052,2.1001,1.27,40.69,23.97,308.24,52.81,109.97,88203,2016-04-11 18:30:27:486
-8.1007,-12.3432,-15.2281,-6.088,-7.6859,-0.1844,-0.0844,-10.8643,1.5009,2.2026,-1.8697,1.0278,9.11,39.36,24.44,304.99,51.6,91.73,88303,2016-04-11 18:30:27:586
6.6242,-4.3116,-7.3874,-6.1047,-7.5707,1.2598,10.7805,-2.9157,-6.8277,-1.1766,-2.1113,-0.0378,19.16,39.95,12.33,311.85,49.3,80.94,88403,2016-04-11 18:30:27:686
-6.2144,-19.4222,-1.2267,-5.3627,-8.2104,0.0266,11.7918,6.2258,-3.7311,-3.0164,-0.4088,-1.5007,21.92,39.46,12.77,282.73,56.85,89.72,88503,2016-04-11 18:30:27:786
-10.6145,-18.7283,-1.6864,-2.3207,-9.174,-2.5735,-4.5057,-8.1086,1.233,-0.6283,1.5615,-2.4186,14.14,41.2,24.25,263.15,63.54,114.11,88603,2016-04-11 18:30:27:886
-8.8868,4.151,1.685,-3.2401,-9.0161,-2.0934,-3.8033,-1.4348,0.7414,-0.6236,-2.5733,-0.6721,4.69,43.19,25.43,247.84,69.31,137.96,88703,2016-04-11 18:30:27:986
0.5794,-6.9467,-2.605,-4.178,-8.7216,-1.6274,0.9785,7.877,-2.6756,0.7294,0.4643,0.8186,12.9,41.74,23.77,272.22,62.79,111.28,88803,2016-04-11 18:30:28:086
-10.0127,-13.8659,6.0993,-3.8132,-8.9084,-1.5067,-6.5835,-5.1144,-3.671,-0.3246,1.1087,0.7004,3.45,45.38,21.9,294.78,65.29,111.56,88904,2016-04-11 18:30:28:187
1.085,-15.7281,-0.592,-4.8807,-8.454,-0.938,-0.5988,-1.5081,0.023,0.0918,-4.7054,2.0791,5.73,42.06,25.48,281.14,65.29,111.56,89003,2016-04-11 18:30:28:286
-4.6855,-11.6375,-8.4806,-5.5809,-7.8923,1.6538,-0.9491,-4.5655,-3.766,-0.2137,-1.2712,1.4105,20.19,41.4,17.61,299.58,53.59,73.49,89103,2016-04-11 18:30:28:386
9.7322,-1.1247,-3.3883,-5.7877,-7.7509,1.6114,4.7696,-2.4993,-8.1782,-1.8708,-2.0215,0.2087,27.02,38.47,14.74,285.22,52.22,74.44,89203,2016-04-11 18:30:28:486
-10.1729,-19.4222,12.1865,-4.3583,-8.6951,-1.2532,-3.4764,-10.823,10.8863,-4.4406,-0.7427,-0.9664,30.71,35.48,19.39,213.07,62.46,106.04,89303,2016-04-11 18:30:28:586
-7.4376,-18.1374,1.2665,-2.7992,-9.1883,-1.9773,-2.0464,-9.3091,-1.021,-0.9627,2.7755,-2.634,28.65,34.48,27.23,192.06,69.55,125.24,89403,2016-04-11 18:30:28:686
-8.3718,2.9885,3.0999,-3.7278,-8.9281,-1.6013,-5.2565,10.4809,4.7159,-1.2637,-4.948,-0.0257,14.47,39.43,30.6,253.7,65.56,113.25,89504,2016-04-11 18:30:28:787
5.3444,-6.8938,8.247,-4.6929,-8.4747,-1.5251,-0.9998,8.4392,-4.1181,0.0146,-2.3045,1.6692,22.27,37.54,30.36,252.21,59.79,108,89603,2016-04-11 18:30:28:886
-10.8666,-13.6601,2.6589,-4.3587,-8.7003,-1.2151,-7.0807,-4.3368,-3.4362,0.5239,-1.057,-1.2218,24.23,35.84,28.43,241.71,63.19,105.49,89703,2016-04-11 18:30:28:986
1.5651,-12.1378,-2.53,-5.6348,-7.9927,-0.732,0.694,0.3976,0.9922,-1.0975,-0.8323,2.0848,19.5,36.9,31.85,253.28,62.52,105.58,89803,2016-04-11 18:30:29:086
-2.5079,-9.6535,-7.5525,-5.9607,-7.5169,2.034,2.6834,-3.8738,-3.6628,0.8193,-2.0277,0.3877,34.76,29.01,24.02,268.61,50.04,71.16,89903,2016-04-11 18:30:29:186
2.1769,-2.2305,-1.6057,-5.8921,-7.5889,1.9653,4.6576,-1.7044,-10.1563,-1.0491,-1.8773,0.535,39.74,28.95,16.98,257.96,50.04,71.16,90003,2016-04-11 18:30:29:286
-5.8546,-19.4222,-10.9429,-3.5109,-9.1069,-0.953,-1.4975,-9.8833,9.0125,-2.3608,1.7798,-2.6894,42.17,24.29,16.24,187.75,68.22,105.19,90103,2016-04-11 18:30:29:386
-4.3248,-15.5673,0.4489,-1.3747,-9.5839,-1.5587,-3.8805,-3.6563,2.1133,-1.2182,-4.1348,-1.1317,28.56,35.75,22.94,166.85,77.76,138.59,90204,2016-04-11 18:30:29:487
-3.2106,3.3538,6.5667,-2.5356,-9.374,-1.367,-6.6215,11.2377,6.0148,-0.8209,-4.5742,0.7745,29.5,36.58,18.73,158.7,77.76,138.59,90303,2016-04-11 18:30:29:586
-0.5083,-7.563,1.7802,-2.926,-9.3067,-0.9975,7.926,2.2471,6.6616,0.0806,-0.193,-0.5971,35.56,34.02,8.15,170.46,71.63,108.82,90403,2016-04-11 18:30:29:686
-5.0234,-6.5723,-1.7641,-2.7559,-9.3252,-1.2715,-8.5805,-4.4073,-3.2759,-0.5516,0.2413,-0.2351,32.41,36.78,9.43,174.8,71.63,108.82,90503,2016-04-11 18:30:29:786
0.9303,-13.6253,0.2379,-4.5645,-8.6683,-0.4431,-0.9426,-9.1453,2.9487,1.1882,-1.5067,1.0845,38.25,31.67,6.63,160.2,65.73,111.92,90604,2016-04-11 18:30:29:887
7.4558,-4.6106,-7.3378,-4.8907,-8.4927,0.3555,1.6004,-4.5361,-6.2732,0.4816,-1.4798,0.7762,40.47,29.33,-2.19,164.74,62.12,95.54,90703,2016-04-11 18:30:29:986
-0.9203,-1.3492,-1.9016,-4.8282,-8.4369,-1.295,11.3293,6.5583,-2.3535,-3.668,-0.2916,-0.8684,41.26,27.7,-10.03,158.67,58.63,87.38,90807,2016-04-11 18:30:30:090
-7.0338,-19.4222,14.1816,-3.3293,-8.8196,-2.7021,-1.8775,-9.4918,12.7436,-1.0408,2.6779,-2.5959,38.29,33.79,-2.92,110.78,64.07,129.06,90903,2016-04-11 18:30:30:186
-5.7669,-8.1339,0.3299,-1.7587,-9.0567,-3.3247,-2.601,-4.9032,0.4966,-2.0199,-4.7424,0.2684,25.66,44.18,3.54,89.53,70.03,151.81,91003,2016-04-11 18:30:30:286
-3.5433,3.6499,8.2321,-3.2921,-8.701,-3.1025,-2.8636,10.6794,8.1021,0.0998,-2.8362,1.0078,26.14,44.08,2.32,79.68,67.45,152.12,91103,2016-04-11 18:30:30:386
-4.1417,-12.6971,-14.9832,-3.1548,-8.9072,-2.6228,5.2269,1.0726,4.8665,-0.6347,2.4672,-0.4958,26.7,42.59,-8.39,80.78,62.89,123.55,91203,2016-04-11 18:30:30:486
-2.8289,-11.8858,0.8599,-3.9904,-8.6274,-2.4114,0.6472,-3.6249,3.2076,-1.731,-0.6364,0.8402,25.61,44.37,-3.85,69.13,61.56,138.48,91303,2016-04-11 18:30:30:586
-10.1312,-13.8566,-10.5095,-4.3195,-8.7999,-0.2727,3.042,-8.9471,3.7526,2.8107,-5.0363,0.5353,29.88,42.79,-3.35,147.68,63.81,93.61,91403,2016-04-11 18:30:30:686
8.3568,-3.6334,-5.6393,-4.6639,-8.6257,-0.1208,12.2142,1.7616,-5.8748,-0.7545,-1.9071,0.7946,29.82,37.72,-19.02,111.7,61.59,91.48,91504,2016-04-11 18:30:30:787
-0.5989,-7.906,-0.7486,-4.1361,-8.684,-1.911,8.242,8.9449,0.4774,-2.9137,-2.1375,-0.8693,28.74,38.22,-21.4,86.08,62.32,114.8,91604,2016-04-11 18:30:30:887
-6.6595,-18.2155,3.1138,-1.3217,-9.2346,-3.0241,-5.7239,-9.2613,-1.4483,0.8104,3.8931,-1.8406,19.48,47.66,-4.83,53.64,64.62,140.49,91703,2016-04-11 18:30:30:986
-9.7462,0.2579,-0.3209,-1.7088,-9.2467,-2.7839,-4.4136,-1.2875,1.2721,0.2805,-1.1135,-0.8514,10.97,50.31,-3.34,36.46,70.33,156.39,91803,2016-04-11 18:30:31:086
6.7988,-7.9154,3.823,-3.1166,-9.0291,-2.2208,5.1059,5.8598,0.0608,0.5035,0.3163,1.0516,8.63,50.14,-5.97,30.07,65.27,126.24,91904,2016-04-11 18:30:31:187
-13.0837,-13.8039,1.1536,-1.053,-9.2721,-3.0149,3.8462,3.9011,6.9049,0.2032,4.4679,-1.9967,11.75,49.4,-7.48,36.45,71,160.75,92003,2016-04-11 18:30:31:286
-1.4553,-18.4449,-0.7954,-1.5344,-8.8616,-3.9099,-3.6166,-1.5584,3.5132,-0.2792,-1.9292,1.2017,10.84,49.39,-7.11,28.83,64.64,158.57,92104,2016-04-11 18:30:31:387
-6.3544,-10.9062,-8.0936,-2.6121,-9.1037,-2.5437,2.6041,-7.7111,-0.7063,1.37,-3.6849,1.1415,13.75,47.9,-8,35.14,64.64,158.57,92203,2016-04-11 18:30:31:486
6.8457,0.4641,-2.5732,-3.7246,-8.8415,-2.0311,4.6276,1.3707,-2.9711,-1.0296,-2.0285,0.7205,16.14,44.42,-16.81,63.42,68.59,120.9,92303,2016-04-11 18:30:31:586
-0.3019,-15.1899,4.4915,-3.7792,-8.354,-3.4783,10.3485,7.2067,0.2584,-3.1757,-1.4846,-0.3345,16.69,44.92,-16.32,46.44,58.42,132.63,92403,2016-04-11 18:30:31:686
-3.276,-18.0875,1.4094,-1.6761,-8.1004,-5.2673,1.0448,-10.4678,2.9924,-0.7072,0.4957,-1.8991,7.51,49.66,0.04,16.24,55.69,162.35,92503,2016-04-11 18:30:31:786
-8.408,0.1877,2.5875,-3.9442,-7.7636,-4.5099,-4.0845,7.8737,6.0967,-0.6765,-3.8052,0.9105,-1.27,50.46,3.2,354.68,52.34,138.83,92603,2016-04-11 18:30:31:886
-3.6859,-3.5639,-4.6997,-4.2024,-7.686,-4.4085,-0.4724,5.6211,-0.5602,0.3722,0.6063,-0.1779,4.26,49.54,5.8,357.84,52.34,138.83,92703,2016-04-11 18:30:31:986
-6.3275,-9.0362,2.0702,-2.308,-7.9621,-5.2391,-7.3172,-8.131,-1.9811,-1.614,0.4111,0.2141,-1.66,51.35,6.09,348.74,57.09,148.58,92803,2016-04-11 18:30:32:086
-3.1525,-19.4222,4.6679,-4.2095,-7.287,-5.0348,0.1183,0.6985,4.9056,-1.0151,-5.5321,1.2606,1.04,49.46,9.06,349.57,47.99,140.1,92903,2016-04-11 18:30:32:186
4.238,-10.5126,-6.0798,-5.3627,-7.926,-2.1425,-2.4413,-5.6284,-7.2683,0.2195,-1.8522,0.8686,10.28,49.73,1.48,7.32,53.92,111.78,93003,2016-04-11 18:30:32:286
4.9265,0.5061,2.1173,-5.8843,-7.5139,-2.2555,11.0034,-2.3633,-4.4011,-3.0775,-2.6427,-0.0492,14.07,47.5,0.72,14.19,53.92,111.78,93103,2016-04-11 18:30:32:386
-7.9613,-19.4222,4.9623,-3.9725,-7.4532,-4.9839,-4.0323,-12.2578,13.5291,1.1879,5.4004,-2.1334,10.64,44.03,19.62,341.43,49.47,141.44,93203,2016-04-11 18:30:32:486
-4.2786,-14.1397,-1.9257,-2.3,-8.1557,-4.9361,-5.4004,-10.1049,-2.2138,0.1,-0.5448,-1.6136,-0.24,45.18,19.07,326.59,49.47,141.44,93303,2016-04-11 18:30:32:586
-1.9546,0.2951,0.2434,-4.7636,-7.474,-4.1972,-2.7816,10.035,7.0224,-1.7279,-4.9304,0.6553,-2.6,44.87,20.71,318.81,49.65,131.38,93403,2016-04-11 18:30:32:686
-1.1752,-2.4736,-0.3675,-4.2301,-8.1725,-3.3893,5.6408,2.719,1.6259,0.9315,-0.8555,1.8281,4.08,40.75,23.34,310.92,49.65,131.38,93503,2016-04-11 18:30:32:786
-6.7335,-15.5477,9.4846,-4.1761,-8.2005,-3.3886,-6.56,-6.013,2.2637,-0.9331,-0.1787,0.6271,3.18,45.04,17.55,303.56,63.2,133.18,93603,2016-04-11 18:30:32:886
-6.4158,-11.9186,-17.9642,-5.3841,-8.0869,-1.3359,-0.6534,-5.7881,5.8238,-1.2566,-3.133,1.4389,5.61,41.41,21.28,300.99,56.74,129.06,93704,2016-04-11 18:30:32:987
3.2966,-2.7298,-4.1939,-5.7073,-7.8382,1.4697,5.4679,-5.2187,-7.8136,0.4799,-1.429,0.7967,19.92,42.74,9.66,310.1,53.06,75.56,93803,2016-04-11 18:30:33:086
0.2464,-6.3466,0.8976,-4.0073,-8.8482,-1.3495,5.8657,6.4152,0.9651,-2.1325,-1.5365,-0.4643,22.57,42.29,6.23,306.79,53.06,75.56,93909,2016-04-11 18:30:33:192
-8.6414,-19.2807,-5.1643,-2.0745,-9.2778,-2.406,-5.8379,-8.7261,0.0424,-1.983,1.6133,-2.889,17.09,43.81,15.88,268.99,64.46,108.61,94004,2016-04-11 18:30:33:287
-4.9037,-0.9262,1.9015,-2.022,-9.229,-2.6281,-4.0316,11.1458,4.7849,-0.6282,-2.5553,0.2438,-1.61,44.72,20.7,247.37,72.66,156.64,94104,2016-04-11 18:30:33:387
2.4513,-4.2311,-0.5097,-2.7144,-9.2002,-2.0394,-0.5627,12.3309,3.3827,0.8267,-0.4357,1.1394,0.48,43.25,23.11,259.44,70.24,142.43,94203,2016-04-11 18:30:33:486
-16.0408,-18.9516,-2.864,-1.9974,-9.575,-0.7078,-6.8954,-7.4747,-3.4869,0.9699,0.761,-0.6293,-2.38,44.65,14.31,298.85,75.18,115.45,94303,2016-04-11 18:30:33:586
-7.6176,-13.3068,3.4477,-2.7581,-9.3475,-1.0896,-5.588,4.6287,2.5478,-0.7373,-0.1698,1.0035,-2.04,44.48,12.57,309.38,72.4,111.56,94403,2016-04-11 18:30:33:686
3.5622,-11.0564,-12.8992,-3.71,-9.0109,1.0997,4.2162,-3.7509,-5.5535,1.117,-1.6708,0.4673,4.7,44.03,10.68,316.28,68.47,89.95,94503,2016-04-11 18:30:33:786
3.8047,-0.3501,-0.7795,-3.1334,-9.2641,0.7268,7.0578,0.6467,-6.8434,-0.3702,0.3216,-0.9475,6.77,45.6,7.06,327.79,66.76,73.49,94603,2016-04-11 18:30:33:886
-12.5899,-19.4222,13.597,-0.5107,-9.7119,-1.2602,-5.3529,2.1348,-7.0441,-0.6707,3.9291,-1.6789,-2.84,46.86,13.76,237.02,82.03,157.94,94704,2016-04-11 18:30:33:987
-8.9343,-11.7979,-2.2881,0.3169,-9.6857,-1.5024,-10.8799,-7.0569,-7.9477,-0.549,2.9173,-1.0466,-11.04,46.55,14.7,219.27,80.99,-168.09,94804,2016-04-11 18:30:34:087
-1.2365,3.2918,6.3602,-0.9188,-9.7302,-0.8061,-2.8179,11.7304,5.1023,2.5703,1.3447,1.7751,-17.81,46.54,13.23,296.47,82.84,131.26,94903,2016-04-11 18:30:34:186
-6.8344,-7.0967,-7.606,-1.0905,-9.7124,0.8069,6.7317,1.5186,-1.2252,2.4496,2.3597,-0.6344,-14.25,49.01,6.62,6.98,82.05,53.5,95003,2016-04-11 18:30:34:286
-5.551,-6.8265,5.1391,-2.4073,-9.3619,1.6523,-10.047,-4.5835,3.069,0.8396,1.9936,1.5456,-11.39,50.05,-7.79,51.52,79.07,41.52,95103,2016-04-11 18:30:34:386
4.6593,-14.9009,-1.3164,-3.5388,-8.744,2.6814,-5.1522,-6.1706,2.0013,2.0632,4.4859,-0.6458,-2.95,49.84,-15.62,46.36,66.4,57.11,95203,2016-04-11 18:30:34:486
3.712,-7.1775,-7.6199,-3.7861,-8.6826,2.5393,6.7125,-4.1283,-11.56,0.4765,0.822,0.0174,-2.63,46.77,-24.55,62.41,62.3,56.15,95303,2016-04-11 18:30:34:586
-0.3947,-7.2573,-2.0793,-2.0024,-9.5962,0.271,5.9651,6.6758,-5.3559,-2.7509,2.3969,-3.3189,-8.09,48.29,-21.38,55.76,78.11,82.29,95404,2016-04-11 18:30:34:687
-2.6151,-17.4664,-0.3037,-0.7492,-9.6776,-1.3975,-7.4108,-6.3937,-0.3256,-2.7509,2.3969,-3.3189,-8.09,48.29,-21.38,55.76,78.11,82.29,95503,2016-04-11 18:30:34:786
-2.3046,-0.4124,5.5369,-0.3136,-8.9786,-3.9314,-1.9875,4.1586,6.7374,-2.1769,-0.1288,-1.2615,-17.7,46.56,-15.09,333.71,66.29,175.44,95604,2016-04-11 18:30:34:887
2.7125,-3.5276,-1.6979,-1.7243,-9.041,-3.3848,-1.6882,14.3865,10.5096,-1.429,-2.3329,1.708,-21.72,46.4,-11.01,325.06,66.29,175.44,95703,2016-04-11 18:30:34:986
-7.1268,-6.3138,-0.3705,-1.1001,-9.5562,-1.9075,-4.6573,0.9655,-3.7363,1.2256,3.0481,-1.1635,-15.37,45.85,-14.6,353,74.15,145.87,95804,2016-04-11 18:30:35:087
3.4788,-15.1471,0.5191,-2.2143,-9.4346,-1.5019,-6.0354,-5.8298,2.7697,0.4662,1.1438,1.2605,-14.85,40.89,-22.87,357.6,77.02,150.03,95903,2016-04-11 18:30:35:186
-9.3128,-11.7934,-15.129,-3.6723,-9.0848,0.3881,1.0859,-2.5766,0.6441,1.0503,-1.8876,0.9424,-13.8,45.43,-25.25,43.85,67.88,83.97,96005,2016-04-11 18:30:35:288
5.1665,-3.5254,-4.4637,-4.2077,-8.8521,-0.3258,1.0184,-1.8109,-9.2135,-0.7244,-0.1581,1.0672,-16.05,47.4,-26.17,42.64,67.88,83.97,96104,2016-04-11 18:30:35:387
0.7733,-19.4222,14.8094,-2.8261,-8.5159,-3.9576,3.5501,0.7213,2.6283,-3.5723,0.0167,-1.544,-14.59,53.1,-5.49,356.71,63.38,116.33,96203,2016-04-11 18:30:35:486
-7.2815,-10.0837,-1.26,-1.7059,-8.7302,-4.1284,-1.2113,-11.4922,15.6638,-1.2422,0.4163,-1.9895,-13.82,47.63,12.62,318.85,60.27,144.47,96304,2016-04-11 18:30:35:587
-2.2466,1.058,-2.4116,-4.0676,-8.257,-3.3834,-1.6132,6.3515,6.3363,-1.1294,-4.0637,1.1132,-10.56,46.63,16.65,306.21,63.28,148.23,96403,2016-04-11 18:30:35:686
-9.9226,-5.3398,-11.7749,-4.2473,-8.0652,-3.6171,6.0565,9.9679,1.4151,-0.5972,-0.499,0.1639,-1.18,46.34,20.45,315.46,55.33,130.42,96503,2016-04-11 18:30:35:786
-4.9238,-6.8268,6.5226,-4.9162,-7.8717,-3.1684,-4.6743,-12.4048,3.8332,-0.317,-1.8963,0.1562,7.67,45.66,21.39,314.1,53.39,122.8,96603,2016-04-11 18:30:35:886
5.5013,-12.6222,-5.4303,-5.3189,-7.9571,-2.1363,-2.4379,-4.2192,4.5763,1.2441,-0.8549,0.5636,13.1,50.05,12.92,335.04,54.23,111.88,96704,2016-04-11 18:30:35:987
0.0369,-2.1883,-2.5303,-5.4817,-8.073,-0.9738,11.4144,0.2007,-6.4866,-0.7439,-1.6718,-0.2979,15.28,49.67,12.24,327.63,55.41,100.07,96803,2016-04-11 18:30:36:086
3.6184,3.6066,4.6271,-4.3563,-8.2755,-2.9512,5.6722,7.771,4.3909,-2.6828,-0.8256,-2.4099,13.56,46.16,19.45,306.18,55.72,107.96,96904,2016-04-11 18:30:36:187
3.3712,-19.4222,-0.4815,-2.3679,-8.7663,-3.7035,-1.4712,-10.1757,8.2713,-0.9928,0.9148,-3.4943,0.11,43.69,27.13,295.85,57.55,124.12,97003,2016-04-11 18:30:36:286
-6.5635,-3.5893,2.3702,-2.4823,-8.4056,-4.3994,-4.8911,7.5724,7.6966,-0.1621,-3.1309,0.9528,-5.23,35.65,36.02,254.23,59,150.57,97103,2016-04-11 18:30:36:386
0.0503,-1.896,-6.7486,-3.8185,-8.3689,-3.3987,-0.2449,9.9377,3.6225,2.2174,0.3413,2.228,2.93,35.65,37.86,259.89,58.58,131.67,97203,2016-04-11 18:30:36:486
-5.4829,-4.9778,-1.1682,-3.5772,-8.7568,-2.5869,-4.2979,-1.7224,-1.1687,-0.336,-0.1555,1.4658,3.83,42.55,28.16,275.09,63.25,125.87,97303,2016-04-11 18:30:36:586
-2.4678,-14.811,1.0816,-4.4024,-8.2631,-2.9172,-0.9907,-2.1705,1.4424,-1.4931,-0.9629,0.7577,6.44,41.22,29.93,265.65,63.25,125.87,97403,2016-04-11 18:30:36:686
-8.501,-16.7827,-11.6517,-5.2252,-8.2952,-0.2392,1.1148,-8.5358,-6.092,3.4267,-3.2166,0.3873,13.55,38.94,28.9,272.75,58.58,108.61,97503,2016-04-11 18:30:36:786
9.679,-0.1856,-2.5916,-5.8396,-7.8749,-0.2365,5.6266,-5.1053,-6.2797,-0.3476,-0.6512,1.1671,16.96,44.13,22.05,299.13,53.42,92.32,97603,2016-04-11 18:30:36:886
-1.7284,-19.1539,5.6279,-4.8805,-7.9901,-2.917,4.4974,0.1019,2.7866,-4.147,-1.3498,-1.4059,26.6,35.89,23.15,263.43,52.4,99.37,97703,2016-04-11 18:30:36:986
-5.1751,-8.9528,0.875,-3.4765,-8.4188,-3.6342,2.0746,-12.003,15.1165,-3.7271,-0.3792,-2.9894,26.83,34.23,28.68,224.35,54.56,120.87,97803,2016-04-11 18:30:37:086
-6.8734,2.2969,0.711,-4.9571,-8.1102,-2.413,-3.2894,8.4698,4.1976,-1.098,-4.8045,0.4167,20.6,33.41,33,246.26,55.79,115.96,97903,2016-04-11 18:30:37:186
-10.8787,-4.6893,-5.3498,-5.6336,-7.8099,-1.8543,3.0723,0.1775,4.4654,-1.7108,-2.221,-0.4929,36,27.28,23.92,210.66,53.61,109.6,98003,2016-04-11 18:30:37:286
-7.8983,-19.4222,12.0631,-6.1292,-7.6474,0.3467,-4.775,-5.902,8.4305,-0.6643,-4.1502,0.1906,36.25,30.75,21.8,252.31,51.24,86.76,98103,2016-04-11 18:30:37:386
-5.8767,-12.8566,-12.9086,-5.2998,-7.1996,4.0309,-2.4033,-7.3166,-2.5654,0.8844,-2.5047,0.4251,41.13,28.12,2.56,248.89,49.86,61.83,98203,2016-04-11 18:30:37:486
5.65,-5.5677,-5.9938,-5.0243,-7.1218,4.4952,8.7663,-4.4784,-9.1709,-0.0183,-1.7103,0.8286,41.52,27.96,-4.86,250.12,47.24,52.74,98303,2016-04-11 18:30:37:586
0.5697,-12.0688,0.9917,-3.8218,-8.5254,2.9803,5.3152,9.0222,-3.6792,-2.9548,-0.9636,-0.8583,40.12,27.08,-11.54,216.45,60.38,52.05,98403,2016-04-11 18:30:37:686
0.724,-19.4222,-0.4137,-2.393,-9.3889,1.5141,3.6064,-6.3638,0.617,-2.1151,1.5241,-2.5779,38.3,30.75,-9.14,226.31,60.38,52.05,98503,2016-04-11 18:30:37:786
-9.2096,-6.19,1.5548,0.8866,-9.7505,0.5591,-1.198,-10.6754,-1.2669,-1.0367,-2.9929,-1.7457,22.26,46.06,-0.48,273.57,81.65,14.22,98603,2016-04-11 18:30:37:886
-1.0935,2.5383,-2.6238,0.8182,-9.7246,0.9663,-8.5822,14.95,5.3994,0.8786,-0.9827,0.0775,17.69,48.22,-0.07,334.65,83.86,-57.76,98703,2016-04-11 18:30:37:986
-3.4184,-8.7424,-0.2475,0.1172,-8.8737,4.1731,1.9702,1.5371,-3.1845,2.5527,1.6912,0.4006,18.3,47.78,-7.62,297.66,73.8,-14.18,98803,2016-04-11 18:30:38:086
-5.9,-7.6104,5.781,-0.9531,-8.727,4.3706,-8.3417,-9.19,-10.5835,0.1111,-0.9784,2.0435,19.46,45.61,-11.09,297.66,64.8,-1.61,98903,2016-04-11 18:30:38:186
1.2306,-15.2501,1.493,-2.5348,-8.0974,4.9171,-4.1762,-10.4666,0.3767,1.5504,0.2346,-0.1541,33.61,36.27,-10.09,263.95,60.39,25.52,99003,2016-04-11 18:30:38:286
8.403,-4.7011,-8.2887,-3.6635,-7.3377,5.3766,4.4547,-9.8758,-2.0428,2.7141,4.7836,0.726,31.47,35.02,-14.96,261.76,55.66,27.27,99103,2016-04-11 18:30:38:386
-4.7198,-12.5569,-3.2921,-3.778,-8.1337,3.9674,10.3078,7.3367,-7.6441,-2.8932,0.6299,-1.9837,34.74,31.81,-18.04,224.96,56.04,43.6,99203,2016-04-11 18:30:38:486
-9.6637,-19.4222,-6.1596,-0.8793,-9.7617,-0.3249,-10.0983,-11.0418,-0.071,-3.0841,3.1627,-3.2086,22.23,45.24,3.72,265.86,71.08,58.14,99303,2016-04-11 18:30:38:586
1.5626,0.1601,9.0488,-0.0885,-9.4602,-2.5819,-1.9803,-11.2153,-6.0335,-3.8757,-3.9836,-0.0214,13.53,47.04,15.75,104.62,74.73,178.04,99403,2016-04-11 18:30:38:686
-1.0442,5.194,7.4672,-2.2115,-9.395,-1.736,0.3242,11.5562,5.689,4.2966,1.5472,0.9984,25.76,41.14,18.05,120.65,68.47,156.64,99503,2016-04-11 18:30:38:786
-6.1133,-4.4727,3.6457,-1.9428,-9.5711,-0.8884,3.0706,-2.2849,-7.3544,4.2966,1.5472,0.9984,25.76,41.14,18.05,120.65,68.47,156.64,99603,2016-04-11 18:30:38:886
-2.7645,-19.2242,-4.6208,-3.5391,-9.1167,-0.7292,-3.3873,-9.4787,-0.7488,0.3248,2.7193,2.3844,25.19,43.35,12.28,216.19,68.38,101.64,99703,2016-04-11 18:30:38:986
3.9053,-11.6562,-2.8533,-4.029,-8.8972,0.882,6.9862,-11.2971,3.0012,0.3631,-5.2243,1.6372,32.33,40.41,15.01,248.13,65.13,77.65,99803,2016-04-11 18:30:39:086
4.1737,-9.8003,-6.7511,-5.0223,-8.2684,1.6064,8.8799,-1.9276,-8.2106,0.0909,-0.8017,1.2726,38.39,33.18,-4.86,205.86,57.47,72.26,99903,2016-04-11 18:30:39:186
0.5349,-18.6101,-1.2374,-4.8173,-8.5209,0.5988,10.5306,8.1075,-3.0118,-1.7738,-1.8136,0.5259,40.9,29.75,-7.32,174.92,60.33,82.91,100003,2016-04-11 18:30:39:286
4.306,-19.4222,-6.6016,-1.1563,-9.4495,-2.3538,-4.5716,-10.5448,6.565,-1.9661,2.5933,-3.1538,38.35,35.07,-0.75,99.72,74.49,153.84,100103,2016-04-11 18:30:39:386
-7.3191,4.0762,3.8929,-0.8392,-9.3728,-2.7597,-1.9674,-9.9994,-0.507,-0.3634,-1.0044,-1.9006,26.69,42.87,9.16,110.94,74.49,153.84,100203,2016-04-11 18:30:39:486
-2.333,1.8717,0.9206,-2.9846,-8.9984,-2.5082,0.6865,9.8718,3.9875,0.6062,-0.2104,1.3389,28.47,41.47,6.65,109.06,67.41,139.91,100303,2016-04-11 18:30:39:586
-8.0179,-15.9712,4.274,-2.0412,-9.2937,-2.373,3.4267,-2.9359,-1.8981,1.069,2.9042,-0.6288,31.38,40.06,4.24,113.91,71.39,139.3,100403,2016-04-11 18:30:39:686
-2.7472,-19.4222,3.9038,-3.5232,-9.0427,-1.4097,-4.4643,-7.5875,-0.2026,0.456,-2.2398,2.0418,30.06,40.7,4.4,146.41,67.23,111.81,100504,2016-04-11 18:30:39:787
3.7335,-8.216,-7.7577,-4.6173,-8.6067,0.8813,1.0132,-3.0718,-10.6203,0.9085,-0.4925,0.8993,39.05,29.41,-10.19,173.3,61.36,79.19,100604,2016-04-11 18:30:39:887
4.5201,2.8566,-1.7798,-4.7065,-8.5946,0.3911,12.8727,3.8638,-5.9694,-1.4259,-1.11,0.4063,39.77,27.5,-14.64,162.91,61.36,79.19,100703,2016-04-11 18:30:39:986
-11.6501,-19.4222,10.9299,-1.9977,-9.207,-2.7223,0.1241,-9.7824,4.996,-1.0138,2.591,-2.6802,34.53,34.54,-9.8,116.59,64.38,111.25,100804,2016-04-11 18:30:40:087
-7.7389,-6.0587,-2.2362,-0.6896,-9.5081,-2.3003,-7.7638,-11.2207,7.0702,0.1499,-0.6381,-2.0624,25.26,43.34,-1.61,83.49,69.86,143.73,100903,2016-04-11 18:30:40:186
-3.0739,4.8595,3.139,-2.5522,-9.2317,-2.1052,-0.307,12.1341,3.7387,0.4668,-0.5164,1.3702,22.08,46.28,-0.69,89.45,70.28,129.52,101003,2016-04-11 18:30:40:286
-10.6389,-14.7208,-10.7317,-1.9796,-9.5816,-0.6662,3.6953,5.5582,4.3849,3.4864,2.6019,-1.6935,24.83,43.62,-2.67,139.9,77.7,108.6,101103,2016-04-11 18:30:40:386
-2.1217,-7.1023,-2.8166,-2.9395,-9.3549,0.1267,-0.6664,2.1878,0.2465,-1.0004,-2.0409,1.7604,25.41,45.35,-2.15,174.94,72.54,87.53,101203,2016-04-11 18:30:40:486
-5.8629,-12.8594,-10.981,-3.6635,-9.0385,1.0273,5.7787,-11.5654,1.4319,1.995,-1.3201,1.5549,28.12,42.38,-7.13,158.06,72.54,87.53,101303,2016-04-11 18:30:40:586
9.8331,-3.3708,-5.8014,-4.5324,-8.4394,2.0985,8.4334,-0.555,-8.5604,-1.9286,-2.6518,0.9205,33.96,34.69,-17.52,174.58,61.07,64.47,101403,2016-04-11 18:30:40:686
-0.4889,-13.1015,2.5621,-4.3314,-8.7636,0.7802,11.433,7.2548,-2.3354,-3.8954,-0.3733,-0.8363,31.44,34.95,-20.53,156.66,59.38,65.16,101504,2016-04-11 18:30:40:787
-13.5504,-15.5612,-2.006,-1.5854,-9.2113,-2.9678,-4.2487,-11.6553,14.9145,-4.3604,1.9677,-2.4921,28.09,41.13,-12.42,91.63,67.74,121.64,101603,2016-04-11 18:30:40:886
-8.685,3.7601,-0.3105,-1.5214,-9.2402,-2.9111,-9.4733,-8.0632,-0.7543,0.1373,-0.3829,-2.3,23.34,46.61,-1.7,70.91,70.43,152.41,101703,2016-04-11 18:30:40:986
2.0603,-2.527,4.7888,-3.8608,-8.5367,-2.8963,2.4733,6.9475,2.4577,-0.7994,-1.8631,1.9667,13.89,48.7,-8.7,44.28,66.09,135.24,101803,2016-04-11 18:30:41:086
-11.2919,-15.2045,-2.5102,-3.1302,-8.7073,-3.2489,8.7302,-0.0995,2.9889,-0.4953,1.6516,-1.9563,17.47,46.66,-6.68,47.58,62.61,136.07,101904,2016-04-11 18:30:41:187
-1.1042,-18.7259,5.6409,-4.0969,-8.0832,-3.7479,-2.5765,-4.0646,-0.0336,-1.3049,-0.6493,0.778,13.1,49.4,-6.21,33.65,62.09,147.99,102003,2016-04-11 18:30:41:286
-0.6729,-11.0109,-4.4623,-5.5457,-7.8028,-2.1286,2.5137,-4.6772,-6.9044,1.405,0.8896,0.5731,18.16,45.2,-14.54,48.39,52.72,111,102103,2016-04-11 18:30:41:386
4.7576,1.5914,-0.1772,-6.0629,-7.4551,-1.958,10.2658,2.2214,-3.9397,-0.6714,-2.1481,0.789,18.7,43.26,-19.3,52.09,49.48,107.9,102204,2016-04-11 18:30:41:487
-11.0441,-19.4222,6.2716,-4.4514,-7.3105,-4.7866,6.2377,-3.7062,5.273,-2.8865,1.4171,-1.5648,17.58,45.22,-12.38,37.92,48.2,137.08,102303,2016-04-11 18:30:41:586
-2.1624,-16.7826,-1.8759,-2.7977,-8.0883,-4.7878,-5.8206,-12.6006,8.4893,0.2855,2.926,-2.1615,11.69,48.36,-3.95,26.35,55.57,149.7,102403,2016-04-11 18:30:41:686
-4.697,3.409,4.9894,-4.8762,-7.5545,-3.9144,-3.7334,0.8864,3.9536,-1.3159,-4.1117,0.6654,-0.8,50.75,-1.37,0.26,50.38,128.76,102504,2016-04-11 18:30:41:787
8.2111,-6.3325,9.387,-5.1329,-7.3434,-3.9872,-0.0027,1.9533,1.3536,-0.1135,-0.0715,0.5857,2.42,50.3,3.55,356.33,48.49,127.84,102603,2016-04-11 18:30:41:886
-4.501,-9.2856,-1.3491,-1.0652,-6.4483,-7.3113,-6.193,-1.4123,10.8963,-2.3863,3.4061,-0.3576,-1.19,51.23,1.83,356.95,47.96,154.35,102703,2016-04-11 18:30:41:986
2.9648,-10.9599,-3.8443,-3.186,-6.5303,-6.586,-1.2254,-10.6551,5.3147,0.3041,-3.5993,1.5795,-1.51,51.02,3.79,354.42,41.75,154.18,102803,2016-04-11 18:30:42:086
-3.5627,-11.3168,-11.3262,-5.0157,-7.3567,-4.1099,0.1691,-4.7687,-6.1427,0.553,-1.0763,0.5251,8.98,50.33,-4.12,16.44,47.45,135.65,102905,2016-04-11 18:30:42:188
7.2052,-0.7508,-1.2429,-5.7116,-6.8457,-4.0846,9.9393,-0.1858,-1.1544,-1.4591,-1.8481,0.6521,11.2,49.4,-5.19,18.73,44.27,125.57,103003,2016-04-11 18:30:42:286
-12.4876,-19.4222,14.0089,-4.4164,-6.6087,-5.7438,1.7682,-9.9743,9.9522,0.029,2.2662,-2.0573,9.39,47.49,8.68,3.6,42.37,142.44,103103,2016-04-11 18:30:42:386
-10.3921,-6.2386,4.4274,-5.3123,-7.0436,-4.2823,-1.2326,-9.9689,6.5345,-2.0158,-5.6171,0.105,-2.03,46.23,16.93,330.77,48.96,144.11,103203,2016-04-11 18:30:42:486
-6.4824,3.8152,-10.8935,-6.7754,-6.1951,-3.4475,-4.1778,2.9629,7.9779,-1.6171,-2.3426,0.7584,6.5,42.83,23.17,322.73,39.18,116.97,103304,2016-04-11 18:30:42:587
0.3172,-2.1762,-1.3556,-4.434,-8.3438,-2.6253,-2.3416,-1.724,-0.5483,1.0165,-1.0381,-1.016,1.21,44.5,21,321,46.82,120.87,103403,2016-04-11 18:30:42:686
-4.7401,-19.2547,5.7601,-4.959,-8.3592,-1.3045,-1.9052,-6.3418,1.6768,-0.0494,-5.2051,0.84,-1.32,43.82,20.83,308.44,58.3,120.63,103503,2016-04-11 18:30:42:786
-8.7967,-13.8624,-16.6305,-5.1424,-8.0764,2.1209,-1.5916,-7.724,-11.793,1.021,-1.3108,0.7822,11.15,42.9,13.83,319.99,55.44,67.59,103603,2016-04-11 18:30:42:886
3.6954,0.8103,-0.8004,-4.9839,-8.0518,2.5495,11.2557,-2.263,-9.1401,1.021,-1.3108,0.7822,11.15,42.9,13.83,319.99,55.44,67.59,103703,2016-04-11 18:30:42:986
-7.2014,-19.4222,5.241,-4.2253,-8.845,-0.2896,7.1096,5.5723,-2.8224,-2.6966,0.999,-0.1646,16.92,42.43,12.04,281,64.41,93.92,103804,2016-04-11 18:30:43:087
-7.4259,-19.4222,1.0925,-2.5999,-9.3775,-1.2137,-5.6919,-11.4719,4.0417,-3.159,0.4755,-2.2229,16.93,41.19,19.33,223.9,72.99,115.02,103903,2016-04-11 18:30:43:186
-6.6203,4.4208,2.0396,-2.6929,-9.3521,-1.2067,-6.1806,4.6803,1.2845,-1.4797,-4.1495,-0.0317,0.81,44.88,22.14,281.75,72.49,114.14,104003,2016-04-11 18:30:43:286
2.0886,-3.5524,4.0999,-3.8054,-9.0241,-0.5044,-4.7318,12.4783,3.5914,1.458,-0.267,1.9965,5.37,43.01,23.92,292.05,66.96,97.55,104103,2016-04-11 18:30:43:386
-1.4956,-5.2759,-0.7585,-4.2644,-8.6854,1.5968,-6.4756,-8.1541,-0.1253,1.9848,-0.1841,0.0503,4.18,46.93,12.38,330.38,62.33,69.47,104203,2016-04-11 18:30:43:486
-1.5741,-19.3092,1.0133,-4.8492,-8.0504,2.8013,1.8932,3.6174,-2.2134,1.5041,-2.6429,2.0472,1.43,47.54,8.48,341.86,62.33,69.47,104303,2016-04-11 18:30:43:586
2.9721,-5.4566,-4.6393,-5.0956,-7.6793,3.3517,3.6602,-2.4763,-8.7553,0.9446,0.1293,0.3061,7.89,46.82,1.98,346.01,52.86,58.05,104403,2016-04-11 18:30:43:686
1.6836,-1.9941,-3.3979,-3.6289,-8.9729,1.5776,7.091,3.0119,-6.9121,-0.8177,-0.8907,-0.0809,10.57,46.21,-1.4,344.75,54.78,57.63,104504,2016-04-11 18:30:43:787
-10.6074,-15.695,-5.3256,-2.5461,-9.4628,0.3779,-11.389,-11.3839,1.5912,-1.4334,2.8554,-2.4343,5.54,44.23,9.48,305.96,74.78,81.56,104603,2016-04-11 18:30:43:886
-3.7004,-0.068,2.6567,-1.904,-9.5934,-0.7158,-4.4907,0.2132,-2.0666,-0.5538,0.4527,-0.1113,-12.15,45.65,14.28,312.2,78.03,110.6,104703,2016-04-11 18:30:43:986
4.5852,-9.1869,2.3935,-2.7086,-9.4219,0.249,-0.2349,13.2054,5.2854,1.5408,0.3325,1.1582,-14.93,45.67,15.3,334.49,73.9,84.75,104803,2016-04-11 18:30:44:086
-18.3106,-17.9342,2.8313,-4.7421,-8.5415,0.8517,-11.6932,-8.4668,0.7461,0.5714,3.1781,2.5737,-14.7,49.56,1.4,9.15,69.69,67,104903,2016-04-11 18:30:44:186
-3.6087,-17.0304,3.276,-6.0438,-7.7096,-0.4519,0.8355,-2.4469,7.0157,1.1031,5.074,1.7558,-10.2,51.47,-4.21,4.68,51.83,94.28,105003,2016-04-11 18:30:44:286
4.6283,-5.0484,-3.1086,-5.537,-7.416,3.2426,4.7349,-5.6287,-12.9763,1.7827,-1.1443,0.2428,-4.14,49.23,-16.86,29.35,51.32,78.51,105103,2016-04-11 18:30:44:386
5.3329,-2.0561,-4.4185,-5.1939,-7.7047,3.1355,11.701,3.3879,-5.6867,-0.254,-0.1876,-0.9415,-2.53,47.21,-22.85,44.31,51.78,58.88,105203,2016-04-11 18:30:44:486
-19.0273,-19.4222,1.6755,-3.216,-9.2603,-0.2715,-9.9028,-7.5371,-2.4152,-2.5162,3.4437,-1.9939,-11.1,47.54,-18.91,33.07,70.79,94.83,105303,2016-04-11 18:30:44:586
-3.7355,-10.8231,-1.5328,-1.8803,-9.4106,-2.0189,-12.3097,-10.847,1.3884,-2.106,3.2767,-1.7553,-15.05,47.33,-14.99,23.97,70.79,94.83,105403,2016-04-11 18:30:44:686
-1.9225,10.1897,11.9077,-2.8807,-8.4235,-4.113,-0.6799,2.5623,9.0362,1.0975,0.0157,2.2291,-17.02,49.15,-2.15,331.87,65.13,157.96,105503,2016-04-11 18:30:44:786
-10.2436,-3.9626,1.5802,-2.1213,-8.682,-4.0364,0.2836,15.4829,12.8742,0.3489,5.9762,-1.8854,-8.83,49.62,-6.21,353.46,59.2,144.99,105603,2016-04-11 18:30:44:886
-1.6729,-17.5401,-2.7776,-1.78,-9.0132,-3.4298,0.9264,-10.2626,-6.0964,-1.4435,-4.0699,2.1232,-6.93,41.33,-18.84,354.58,67.18,169.03,105704,2016-04-11 18:30:44:987
-3.7941,-11.124,-19.1074,-3.5799,-9.041,-1.2712,-0.2968,-3.1556,-11.0058,2.9431,-1.5798,0.6808,-6.93,41.33,-18.84,354.58,67.18,169.03,105803,2016-04-11 18:30:45:086
8.8544,-1.8562,-4.6462,-3.9014,-8.8611,-1.5588,7.4932,1.8057,-3.3412,0.0426,-0.7373,0.8513,-6.1,42.78,-24.89,36.07,67.21,109.55,105904,2016-04-11 18:30:45:187
-5.8134,-18.6787,4.7339,-2.9048,-7.9236,-4.9949,-2.0012,-6.4151,4.8026,-3.7687,-0.1517,-0.9259,-12.68,54.66,-19.5,358.11,53.9,149.82,106003,2016-04-11 18:30:45:286
-5.605,-18.9486,2.1173,-1.9266,-7.8463,-5.5583,3.439,-12.6499,10.7311,-3.0228,0.8993,-1.6624,-17.48,54.22,0.39,336.45,53.14,160.88,106103,2016-04-11 18:30:45:386
-8.9698,-0.2626,5.1374,-4.8434,-7.2586,-4.4748,-4.3883,1.4924,7.3677,-1.5066,-5.6762,-0.0274,-13.61,46.59,15.17,327.07,47.75,132.74,106203,2016-04-11 18:30:45:486
0.0643,2.4243,5.0716,-5.7842,-6.3641,-4.713,-2.8478,6.3634,5.7971,-1.6258,-2.5097,0.8957,-2.96,45.22,23.4,317.05,47.75,132.74,106303,2016-04-11 18:30:45:586
1.4175,-14.1055,-1.0635,-6.4575,-5.7602,-4.6142,2.0668,3.6306,1.5603,0.0092,-1.2016,0.0815,4.89,44.62,24.91,325.63,35.97,125.55,106403,2016-04-11 18:30:45:686
-11.5399,-16.9648,-0.505,-7.1989,-6.0525,-2.7772,-2.2318,-9.8933,12.4607,0.6149,-2.4552,0.7797,10.14,44.03,24.11,321.39,38.11,111.1,106503,2016-04-11 18:30:45:786
7.1249,-9.0872,-7.3742,-7.5246,-6.2466,-0.7286,12.978,-4.4053,-7.3003,0.5772,-1.0565,0.6157,14.64,47.63,14.27,334.88,39.57,95.53,106603,2016-04-11 18:30:45:886
4.1107,1.4263,2.9214,-7.3862,-6.4466,-0.237,10.3095,0.4833,-4.352,-1.2956,-2.3419,-0.3526,17.8,48.59,11.85,335.32,41.1,91.84,106703,2016-04-11 18:30:45:986
-8.9847,-19.4222,-8.6494,-5.2149,-8.0637,-1.9879,-5.9394,-12.7267,6.2543,-0.9591,2.0981,-2.4167,10.09,44.16,24.83,296.88,55.31,110.87,106803,2016-04-11 18:30:46:086
-5.7522,-9.8238,-0.1533,-4.0487,-8.6938,-2.0484,-3.417,-12.014,-2.6765,0.026,0.1481,-1.9307,-0.98,42.93,29,289.03,62.44,116.84,106903,2016-04-11 18:30:46:186
-4.2051,0.408,-8.8631,-5.6773,-7.9823,-0.4699,-2.254,10.7585,3.585,0.267,-2.6238,1.6198,3.03,38.03,34.21,280.92,61.02,109.55,107003,2016-04-11 18:30:46:286
-1.3757,-0.6476,-1.2999,-5.1725,-8.3196,-0.446,5.9782,0.9588,4.1111,1.0597,3.0477,-0.769,10.15,40.33,30.84,295.74,53.88,91.6,107103,2016-04-11 18:30:46:386
-1.8191,-16.372,-5.1988,-5.4325,-8.1433,-0.5884,-4.626,-2.3817,3.1153,-0.5643,-0.8231,0.6779,6.16,42.67,29.51,297.83,58.03,94.93,107203,2016-04-11 18:30:46:486
-2.4133,-12.618,8.0479,-5.78,-7.911,0.4228,6.9271,-8.8482,1.5665,-0.1931,-3.612,0.8825,12.74,39.3,30.18,286.31,56.14,96.18,107303,2016-04-11 18:30:46:586
9.9631,-2.3851,-3.0478,-5.1185,-7.5598,3.5806,2.5871,-4.9218,-11.3441,-0.1173,-1.6346,1.1147,22.99,40.49,21.12,303.65,50.43,55.03,107404,2016-04-11 18:30:46:687
-0.1298,-5.1982,2.4821,-4.2294,-8.7689,1.1785,5.3798,3.8736,-0.6932,-4.1626,-0.23,-1.8051,31.7,32.36,24.34,256.73,63.4,74.43,107504,2016-04-11 18:30:46:787
-10.4389,-15.8763,4.9916,-2.2782,-9.5269,0.4677,4.1393,-10.3031,13.4219,1.2106,2.3254,-4.0716,27.58,30.64,32.35,250.57,76.28,78.4,107603,2016-04-11 18:30:46:886
-9.6924,-2.49,2.5392,-0.4942,-9.7922,0.1961,-6.2847,-2.7656,-0.6547,-1.3509,-4.1962,1.1681,21.94,36,30.72,292.52,84.56,36.8,107703,2016-04-11 18:30:46:986
3.1602,-7.1551,5.553,-1.2662,-9.7216,-0.2418,-6.1385,8.9846,1.9011,-1.3509,-4.1962,1.1681,21.94,36,30.72,292.52,84.56,36.8,107804,2016-04-11 18:30:47:087
-5.7699,0.7379,2.4736,-0.4895,-9.6611,-1.6107,-1.4392,4.7577,-2.7084,-0.8167,-0.1129,-1.7673,37.42,29.47,23.81,134.82,80.12,163.09,107905,2016-04-11 18:30:47:188
0.6506,-14.6114,1.081,-0.8237,-9.703,-1.1594,-9.3275,2.442,5.5641,-1.6609,-2.3484,0.0618,34.41,31.28,22.01,155.41,81.66,144.61,108004,2016-04-11 18:30:47:287
4.2766,-9.8699,-1.9953,-1.58,-9.6574,0.6399,0.704,-0.86,-7.3266,1.3518,-0.3699,0.6839,43.43,25.98,5.62,198.47,83.07,80.92,108103,2016-04-11 18:30:47:386
0.2165,-3.5012,1.1319,-1.8584,-9.6289,0.0272,8.6081,4.0143,-5.5907,-0.5601,-2.6674,0.8289,44.75,24.71,2.24,183.86,79.08,89.16,108203,2016-04-11 18:30:47:486
-3.9666,-19.4222,17.1588,-1.5825,-8.8744,-3.8616,-1.2954,-8.5098,5.4593,-3.915,-0.4191,-0.5119,45.21,21.94,-6.19,122.98,73.1,131.26,108303,2016-04-11 18:30:47:586
-10.3381,-7.4888,1.871,-0.4531,-8.7108,-4.4818,1.3802,-12.2074,7.969,-2.102,0.3315,-1.851,40.78,28.05,-1.08,91.97,64.81,157.72,108403,2016-04-11 18:30:47:686
-4.2838,5.4257,5.8449,-1.3173,-8.4438,-4.8101,-8.3508,5.9833,6.5606,-0.6665,-3.261,-0.6844,31.24,39.66,-1.72,59.31,60.69,173.85,108503,2016-04-11 18:30:47:786
-1.3613,-1.2379,0.8265,-0.0339,-9.3382,-2.9946,1.787,6.937,4.0723,1.9241,2.2527,-0.7331,27.59,41.1,-8.58,53.51,72.22,179.35,108604,2016-04-11 18:30:47:887
-0.192,-6.0859,0.603,-0.8293,-9.516,-2.2198,-6.8316,-0.5974,0.7406,1.1144,-1.9427,0.4026,27.87,40.57,-8.62,53.51,72.22,179.35,108703,2016-04-11 18:30:47:986
-0.598,-8.9258,-3.6032,-1.7256,-9.6446,0.4182,1.6684,-3.212,-5.4858,1.9981,-0.5688,0.2029,30.06,33.79,-21.24,154.02,79.57,76.38,108803,2016-04-11 18:30:48:086
4.1299,-5.1924,-4.6099,-1.2353,-9.712,0.5668,5.8095,-0.2798,-7.2078,0.4459,0.2566,-0.6441,28.99,31.72,-26.82,145.44,79.57,76.38,108903,2016-04-11 18:30:48:186
-7.7475,-10.2425,-3.5047,0.9671,-9.5841,-1.8385,-8.1454,-2.3073,-2.4177,-2.4674,1.0121,-1.8599,24.31,36.61,-26.08,12.49,77.77,-152.25,109003,2016-04-11 18:30:48:286
-6.9773,-18.7877,1.8636,1.9804,-9.14,-2.9511,-18.9147,-11.2782,0.0824,-2.3625,2.6242,-1.4981,22.4,43.41,-14.54,14.39,68.75,-146.14,109103,2016-04-11 18:30:48:386
-0.4376,-6.949,2.5575,2.4801,-8.4593,-4.2966,0.1362,-6.3029,2.0918,-0.9976,-0.7319,1.0382,18.29,48.4,4.47,31.19,59.61,-150,109203,2016-04-11 18:30:48:486
3.1083,-3.3251,-3.4118,1.336,-9.1771,-3.1885,-5.5668,9.0764,8.8413,2.7278,1.1135,2.1291,21.96,46.92,5.55,49.45,69.36,-157.27,109303,2016-04-11 18:30:48:586
-11.1231,-15.164,3.1395,1.256,-9.7244,-0.1721,2.0087,1.7937,-0.329,1.1427,3.1826,0.2882,29.58,42.12,0.76,8.29,82.57,-97.8,109404,2016-04-11 18:30:48:687
3.2112,-16.1664,-2.2515,0.249,-9.8006,0.2394,-10.2998,-5.4776,-0.6838,0.2103,2.3798,1.5816,30,40.86,5.77,328.83,87.98,-46.13,109504,2016-04-11 18:30:48:787
-5.3621,-13.1123,-8.9137,-0.1904,-9.5816,2.0803,-3.7052,-8.7901,-10.9616,0.7833,0.4419,0.5229,34.74,37.89,-4.77,270.19,77.7,5.23,109603,2016-04-11 18:30:48:886
8.8291,-0.3949,-1.9183,-0.4747,-9.7951,-0.0234,10.5001,7.4233,-2.3087,-3.4914,-1.2215,-0.952,38.18,34.56,-1.88,255.37,79.75,21.09,109705,2016-04-11 18:30:48:988
-15.5087,-19.4222,8.2634,0.8034,-9.5167,-2.2263,1.858,-4.0785,1.3869,-3.5276,0.5082,-3.0337,37.76,36.35,1.65,180.2,87.22,92.82,109803,2016-04-11 18:30:49:086
-5.0706,-15.3519,-1.9865,3.6,-8.658,-2.8722,-8.1576,-9.4286,-1.8065,0.9666,2.2835,-3.4582,31.96,39,16.17,45.78,61.99,-128.58,109903,2016-04-11 18:30:49:186
-4.2669,4.8665,6.4969,2.0695,-8.5896,-4.2551,-5.6871,2.8562,5.2262,-1.6115,-4.0829,-0.3274,23.28,43.73,14.66,56.22,61.15,-154.06,110003,2016-04-11 18:30:49:286
6.568,-12.2056,7.9404,1.444,-9.0244,-3.556,1.2631,3.5862,0.3112,0.7493,0.5829,0.7215,34.28,36.51,11.29,64.67,66.96,-157.9,110103,2016-04-11 18:30:49:386
-7.9456,-14.8739,-1.417,2.0812,-9.2061,-2.6621,-4.5926,-4.3119,0.5163,1.7143,2.2379,-2.3534,34.8,36.36,11.17,65.29,66.96,-157.9,110203,2016-04-11 18:30:49:486
-1.5507,-13.399,-1.4997,-1.1121,-9.7018,-0.8988,-2.3256,-11.6864,1.8584,1.2829,-7.783,1.6861,33.93,35.66,9.84,92.7,75.63,178.54,110303,2016-04-11 18:30:49:586
6.5141,-2.7323,-4.6329,-1.3969,-9.7066,0.0395,4.0642,-2.3237,-7.402,2.3233,-0.1415,0.3657,39.3,30.31,-4.03,175.19,81.81,88.38,110403,2016-04-11 18:30:49:686
1.2249,-1.4185,-4.3427,-1.0101,-9.6039,-1.7072,3.4831,7.2339,-1.7037,-2.0913,-1.4778,-0.6773,40.9,28.11,-10.84,97.68,78.33,149.39,110503,2016-04-11 18:30:49:786
-7.1147,-19.4222,-1.65,0.7987,-9.3761,-2.7605,-5.4007,-9.8545,6.4425,-2.5497,1.9914,-2.1928,39.51,30.59,-9.4,52.09,72.96,-163.86,110603,2016-04-11 18:30:49:886
-9.0773,-2.5205,-0.5959,2.5835,-8.9067,-3.1885,-6.3422,-9.0914,0.3298,-0.5056,-1.6937,-1.2713,23.32,45.9,3.31,33.12,65.26,-140.98,110703,2016-04-11 18:30:49:986
-2.7048,-0.9531,-2.7184,0.6897,-9.0728,-3.6576,-8.5418,12.0006,6.0159,-0.5782,-3.1671,1.6651,20.51,46.17,1.99,47.51,67.69,-169.32,110803,2016-04-11 18:30:50:086
-7.2625,-15.8572,-5.5573,0.7352,-9.5471,-2.1171,-1.3718,1.8002,4.6419,1.1535,2.598,-0.5033,28.76,41.56,-2.24,61.87,72.14,-178.57,110903,2016-04-11 18:30:50:186
2.2728,-19.4222,4.1593,-1.0551,-9.6397,-1.4609,-6.2525,-1.4008,0.5324,0.5934,-4.2767,1.3505,30.03,41.64,-0.52,63.67,78.57,-169.75,111003,2016-04-11 18:30:50:286
-12.0816,-16.7725,-17.9917,-1.2927,-9.7179,0.249,3.14,-11.603,3.1068,2.3087,-2.2915,0.4571,33.05,36.84,-7.87,176.77,82.29,79.1,111103,2016-04-11 18:30:50:386
7.6613,1.3267,-2.2639,-1.5877,-9.677,-0.0787,10.5436,7.8816,-2.9628,-2.1165,-2.443,-0.2354,36.19,30.01,-17.67,146.4,80.67,92.84,111203,2016-04-11 18:30:50:486
-1.2697,-18.2547,3.342,-0.8147,-9.4558,-2.4685,0.0487,2.1891,0.9295,-4.359,-0.1558,-1.6773,33.74,33.35,-18.28,144.22,80.67,92.84,111303,2016-04-11 18:30:50:586
1.4095,-19.4222,-2.7563,1.8106,-9.3194,-2.458,-6.5973,-11.3972,-3.5616,0.9806,0.6135,-2.1651,20.72,48.21,-1.62,29.05,71.86,-143.62,111403,2016-04-11 18:30:50:686
-7.2725,4.6317,3.8943,1.4978,-9.2576,-2.8678,-3.9441,-6.2555,-0.9979,-0.8958,-4.1252,0.7916,13.7,50.32,-2.28,21.98,71.86,-143.62,111503,2016-04-11 18:30:50:786
-3.2032,-0.0804,-3.4439,-0.2615,-9.5087,-2.3847,-3.6915,7.6941,-0.32,2.2202,4.5512,-1.3851,21.9,47.11,-4.92,52.62,71.18,172.57,111603,2016-04-11 18:30:50:886
-4.9267,-18.4726,2.2442,1.1835,-9.6329,-1.4062,0.4735,4.7954,5.7896,-0.1714,2.3294,-1.4993,19.25,48.16,-5.33,24.55,79.2,-139.92,111703,2016-04-11 18:30:50:986
-1.0052,-19.3754,0.2312,-0.2982,-9.654,-1.6974,-3.8055,-2.7456,-0.1424,1.7436,-2.227,1.6587,22.04,45.49,-5.23,35.42,77.27,-152.44,111803,2016-04-11 18:30:51:086
-1.8363,-12.8861,-5.7998,-0.6802,-9.7829,-0.0412,4.0958,-8.9194,-1.1196,1.7436,-2.227,1.6587,22.04,45.49,-5.23,35.42,77.27,-152.44,111903,2016-04-11 18:30:51:186
11.4105,1.0178,-3.3721,-1.379,-9.7041,-0.3141,12.2595,8.1899,-2.82,-0.8162,-1.5575,1.9211,25.19,39.6,-19.4,175.57,82.1,56.38,112003,2016-04-11 18:30:51:286
-14.9794,-19.4222,9.7868,-0.5762,-9.4837,-2.4286,1.8062,-0.6721,2.4406,-3.0447,-1.4883,-0.7445,26.99,36.39,-19.89,122.85,81.71,102.83,112103,2016-04-11 18:30:51:386
-4.172,-17.4053,-3.7001,1.2483,-9.2566,-2.9878,-6.3685,-11.4419,-3.3749,0.591,1.9732,-1.3097,16.75,47.31,-7.98,23.73,70.72,-157.32,112203,2016-04-11 18:30:51:486
-4.9356,0.8349,-0.8242,-1.1947,-8.9519,-3.8218,-6.9238,9.1228,5.6944,-0.9616,-3.4065,1.3266,5.92,50.36,-2.23,17.12,65.9,162.64,112303,2016-04-11 18:30:51:586
7.3105,-11.9245,9.1175,-0.3813,-9.3562,-2.9131,-1.134,5.661,-0.7352,0.7316,-0.0237,0.3412,9.22,48.47,-1.41,32.5,72.57,172.54,112403,2016-04-11 18:30:51:686
-8.5272,-16.3715,-1.7762,-1.1482,-9.5826,-1.7397,-7.5637,3.9384,8.9552,-0.3471,-1.5821,1.64,7.41,50.94,-2.63,38.22,77.73,146.57,112503,2016-04-11 18:30:51:786
-3.283,-11.2356,-1.2471,-2.4452,-9.485,-0.4754,-2.9304,-10.1636,-0.4744,0.3141,-6.3757,1.9519,11.77,49.76,-1.91,68.49,75.29,101,112603,2016-04-11 18:30:51:886
7.0795,-4.2261,-4.5561,-3.3333,-9.2227,-0.021,9.308,2.6719,-4.8364,-1.1067,-1.9769,1.0545,18.17,45.45,-14.62,115.21,72.66,81.41,112703,2016-04-11 18:30:51:986
1.3373,-7.6851,0.6065,-3.2743,-9.0292,-1.9805,5.7336,7.4236,-0.2717,-3.4849,-1.2204,-0.1745,19.03,44.79,-14.87,66.75,67.03,121.17,112804,2016-04-11 18:30:52:087
-5.2551,-19.4222,2.9501,0.1574,-8.6974,-4.5278,-3.1044,-12.2723,8.1585,-1.3439,1.1064,-2.9196,10.08,48.38,4.13,28.15,62.48,-178.01,112903,2016-04-11 18:30:52:186
-9.7569,0.2064,4.2666,-0.1594,-8.4674,-4.9445,-5.8882,-7.906,5.7461,-0.8739,-3.4617,-1.5089,-0.62,48.76,8.76,355.66,59.7,178.15,113003,2016-04-11 18:30:52:286
4.7017,-3.0152,5.1625,-3.5373,-7.6711,-4.9812,-5.6203,4.9638,-1.4373,-0.6093,-0.8346,1.1802,3.67,46.76,15.06,343.15,51.47,144.62,113103,2016-04-11 18:30:52:386
-14.3033,-17.3919,-2.431,-2.8585,-7.9986,-4.9013,7.451,3.2238,9.4393,0.3343,0.1339,-1.4399,6.82,46.94,15.65,351.22,54.65,149.75,113203,2016-04-11 18:30:52:486
-1.5024,-16.1539,7.0589,-4.3855,-7.4359,-4.6525,0.1331,-2.1156,6.2213,-0.4146,-4.8434,1.1107,0.81,47.2,18.7,327.93,49.31,136.69,113306,2016-04-11 18:30:52:589
-1.2818,-13.6198,-6.0002,-5.4246,-7.7718,-2.5184,0.0591,-11.3207,7.0172,1.7907,-2.4404,0.3281,9.06,46.34,14.41,332.22,52.42,114.9,113403,2016-04-11 18:30:52:686
2.9518,-0.5357,-0.7667,-6.1538,-7.5184,-1.3322,11.6225,4.715,-0.5595,-2.6052,-3.0033,-0.3977,16.61,45.77,5.74,351.85,50.06,102.21,113503,2016-04-11 18:30:52:786
-14.0136,-19.4222,14.8114,-4.0532,-8.1384,-3.6754,-5.7065,-12.7569,12.6887,1.2885,3.6256,-2.4676,15.15,39.4,22.7,267.66,56.09,132.2,113603,2016-04-11 18:30:52:886
-5.6105,-7.7582,1.3457,-2.8514,-8.8102,-3.228,-2.7255,-11.5573,-3.9518,-0.1914,-2.7976,-1.6757,3.14,39.99,25.86,289.12,56.09,132.2,113703,2016-04-11 18:30:52:986
-4.8515,3.6382,2.2472,-5.0954,-8.1804,-1.8134,-2.6523,11.4436,3.9023,0.281,-1.5248,1.7081,14.54,37.91,26.93,274.53,56.53,109.59,113803,2016-04-11 18:30:53:086
-6.5928,-15.7427,-0.5361,-4.705,-8.5306,-1.1238,3.2274,7.8968,-1.1229,3.6835,3.8208,-2.9549,19.78,36.2,26.88,257.94,60.44,103.43,113903,2016-04-11 18:30:53:186
-6.2919,-7.594,-2.4,-3.9857,-8.9386,-0.6219,2.651,-3.6723,2.3584,3.6835,3.8208,-2.9549,19.78,36.2,26.88,257.94,60.44,103.43,114003,2016-04-11 18:30:53:286
-7.3007,-11.9852,-11.9077,-5.8066,-7.8704,0.7142,-2.5609,-9.3234,-3.6966,-0.6807,-2.3087,2.2678,8.64,41.58,22.27,299.09,59.04,97.54,114103,2016-04-11 18:30:53:386
6.4325,-5.9856,-6.5909,-5.9511,-7.414,2.4056,2.5711,-4.9473,-10.6151,0.4126,-0.9402,0.7736,24.57,41.92,8.33,305.52,49.47,68.85,114203,2016-04-11 18:30:53:486
-0.3698,-10.2607,-0.665,-5.7143,-7.8434,1.4136,6.6313,6.5439,-3.4049,-2.0699,-1.7722,0.1269,26.06,40.38,5.78,292.41,53.11,76.1,114303,2016-04-11 18:30:53:586
-2.765,-19.4222,-1.8586,-2.2838,-9.4355,-1.3878,-7.0028,-11.2808,3.0986,-2.0454,1.7558,-3.5342,21.22,41.62,19.69,263.87,62.94,97.75,114403,2016-04-11 18:30:53:686
-9.1847,5.2854,4.4819,-1.4465,-9.5722,-1.5658,-3.7787,-7.6979,-2.2968,0.2149,0.2035,-2.4763,9.91,41.09,26.59,239.48,74.19,121.29,114503,2016-04-11 18:30:53:786
-4.9989,1.1747,-6.2683,-3.6573,-9.0452,-0.989,-0.685,10.9006,0.5638,0.565,-0.8948,1.7161,13.41,37.42,29.69,237.73,71.63,118.43,114604,2016-04-11 18:30:53:887
-11.1229,-18.4522,0.486,-3.6328,-9.0898,-0.5898,4.2939,1.9646,4.2893,1.2056,1.5645,0.2851,16.76,38.84,27.46,253.1,67.27,105.13,114703,2016-04-11 18:30:53:986
-1.0457,-18.4258,2.8806,-4.3536,-8.7647,0.629,-0.1036,0.6603,-3.108,0.2894,-2.2309,1.1036,12.92,43.66,22.86,294.41,63.35,81.78,114803,2016-04-11 18:30:54:086
-6.9974,-13.9496,-13.2143,-4.761,-8.3852,1.7865,2.32,-10.0643,1.2807,0.8932,-2.1351,1.3569,18.32,42.99,21.61,284.24,63.35,81.78,114903,2016-04-11 18:30:54:186
7.3239,0.9842,-2.5697,-4.9393,-8.1569,2.2889,7.5169,-2.7442,-9.8856,-0.9236,-1.5923,0.2598,27.88,43.67,9.84,291.25,54.75,64.95,115004,2016-04-11 18:30:54:287
-12.437,-19.4222,12.154,-2.7133,-9.4002,-0.6665,-7.1371,-11.2013,8.5532,-1.2136,3.6692,-2.2972,25.27,42.26,20.6,267.29,64.74,80.33,115103,2016-04-11 18:30:54:386
-5.8978,-18.9108,-4.5444,-1.3247,-9.6848,-0.7876,-5.1621,-10.7523,-8.9267,0.4362,2.6283,-2.1505,15.49,43.91,25.47,216.86,80.96,120.73,115203,2016-04-11 18:30:54:486
-5.9392,4.7099,3.078,-2.9167,-9.3401,-0.6527,-3.816,12.5332,3.9701,1.1012,-1.1506,2.4496,3.71,45.66,25.07,234.01,79.35,133.33,115303,2016-04-11 18:30:54:586
5.7725,-9.0505,0.3489,-3.7352,-9.0556,0.4634,2.5507,9.3854,0.3182,2.5577,2.2489,0.4647,17.66,41.86,27.48,275.31,67.43,82.93,115403,2016-04-11 18:30:54:686
-12.4239,-7.2334,0.3526,-4.3665,-8.7743,0.341,-4.5572,-7.615,-5.7163,0.353,2.2241,1.7975,9.37,48.02,19.93,305.65,63.47,85.54,115503,2016-04-11 18:30:54:786
3.0939,-16.6329,10.4316,-5.5291,-8.0034,1.243,-4.0737,-2.5429,0.1077,0.0991,-5.0577,2.2483,12.75,46.52,20.02,312.36,54.7,77.33,115604,2016-04-11 18:30:54:887
7.9431,-7.3131,-6.6191,-5.905,-7.1506,3.1891,3.299,-8.7833,-12.8112,0.2416,-0.5817,0.6117,25.19,44.56,8.45,312.82,46.82,61.63,115703,2016-04-11 18:30:54:986
0.4156,-0.9403,-2.8745,-5.4587,-7.6482,2.8067,11.1107,-1.6351,-8.8957,-2.2018,-0.9831,-1.1126,27.33,43.62,7.33,301.34,51.25,62.79,115803,2016-04-11 18:30:55:086
-7.1704,-18.3251,-6.4712,-3.467,-9.1723,0.1412,-10.0833,-10.31,4.8888,0.4873,4.6918,-1.6529,14.98,42.21,23.83,296.18,61.59,73.28,115903,2016-04-11 18:30:55:186
-6.2117,-3.2629,0.2108,-2.6157,-9.4466,-0.2997,-4.8208,-9.1055,-3.7627,0.4873,4.6918,-1.6529,14.98,42.21,23.83,296.18,61.59,73.28,116004,2016-04-11 18:30:55:287
0.3281,4.0685,-0.315,-4.2737,-8.8066,0.5912,1.3246,13.6134,2.7306,0.4904,-1.4965,2.15,0.26,42.51,27.64,308.88,63.9,82.12,116103,2016-04-11 18:30:55:386
-11.4518,-19.4222,-2.6869,-3.9668,-8.6231,2.4653,-2.2125,-5.6939,-0.2818,2.3103,0.0916,-2.0292,8.83,44.2,22.56,315.73,61.56,58.14,116206,2016-04-11 18:30:55:489
-7.437,-14.8982,-2.0265,-5.215,-8.0469,2.0548,-4.6019,-1.9136,-4.4986,1.112,1.398,1.6048,4.98,46.96,15.96,329.03,55.14,68.49,116303,2016-04-11 18:30:55:586
-3.2256,-12.1285,-10.9983,-4.5669,-6.9906,5.1425,3.7561,-8.9646,-2.5743,2.5598,-4.4034,0.4256,14.06,44.49,16.83,320.03,49.81,58.67,116403,2016-04-11 18:30:55:686
9.931,1.1761,-1.4185,-4.281,-7.1747,5.1349,3.2185,-4.3415,-15.0226,0.2267,-1.1141,0.4268,19.51,45.57,10.22,322.48,45.47,41.61,116503,2016-04-11 18:30:55:786
-8.5862,-18.9264,-2.3393,-2.6818,-9.2573,1.8115,-9.606,-10.3712,0.8722,-3.1585,1.6728,-2.315,19.29,44.75,12.47,313.63,57.16,42.38,116603,2016-04-11 18:30:55:886
-6.7145,-15.1584,-4.8355,-1.3013,-9.6872,0.797,-4.1536,-10.4581,-5.6878,-1.595,2.7454,-2.5475,10.77,43.52,21.06,305.83,70.73,55.96,116703,2016-04-11 18:30:55:986
-1.7413,5.4709,2.7603,-1.7441,-9.6502,-0.0393,-3.1165,12.8044,3.7307,-1.0378,-2.4214,1.2861,-3.49,42.82,26.02,290.6,85.84,82.35,116803,2016-04-11 18:30:56:086
11.3363,-17.0442,4.0134,-2.9544,-9.3405,0.4446,0.8354,12.1676,-0.788,0.9221,0.1449,1.8917,3.63,40.35,29.37,293.17,72.26,81.44,116904,2016-04-11 18:30:56:187
-4.7191,-6.6977,0.8181,-3.5187,-9.1493,-0.2833,-7.9513,-5.3112,-1.9977,-0.7587,-0.3173,0.4693,2.84,43.7,24.55,296.05,71.32,87.54,117003,2016-04-11 18:30:56:286
-2.7022,-11.2289,-3.3759,-4.0085,-8.9435,0.3403,0.7705,-6.9393,-0.1433,-0.1237,-2.8224,0.882,6.27,42.73,26.77,286.6,68.9,94.6,117103,2016-04-11 18:30:56:386
7.0914,-5.2093,-3.7897,-3.9391,-8.863,1.4496,-1.1164,-2.3806,-8.2503,-0.4619,-1.3355,0.5426,17.54,41.44,21.4,287.22,65.67,70.01,117204,2016-04-11 18:30:56:487
2.8868,-2.1042,-1.2806,-3.8278,-9.0267,0.1945,9.1413,2.9399,-5.1847,-2.6716,-0.9106,-0.1986,20.77,39.52,22.19,263.45,66.99,87.09,117303,2016-04-11 18:30:56:586
6.8927,-19.4222,10.9094,-0.6618,-9.5631,-2.0685,0.7936,-10.6889,10.7099,0.0891,0.4497,-4.0365,18.23,31.29,34.65,168.19,77.21,162.26,117403,2016-04-11 18:30:56:686
-4.4079,-7.6067,-0.7428,-0.4943,-9.6928,-1.4059,-4.3352,1.2385,0.4881,-0.3282,-4.8262,1.6163,13.14,34.25,33.91,129.19,80.62,-157.32,117503,2016-04-11 18:30:56:786
-3.9938,-0.7973,1.9362,-2.1778,-9.423,-1.6234,-2.4975,5.1437,0.7247,-1.6844,-4.6855,1.2611,24.1,31.62,29.82,157.72,81.26,160.63,117603,2016-04-11 18:30:56:886
-6.1968,-1.4939,-2.8393,-3.0163,-8.8759,-2.8794,-1.4727,5.5928,-0.2435,-2.7738,-3.941,-0.0769,39.91,24.82,17.2,159.7,69.79,128.19,117703,2016-04-11 18:30:56:986
-5.7174,-16.8707,-10.051,-3.8609,-8.7371,-2.2197,-7.3687,-8.9305,10.8264,1.2948,-2.6049,0.3782,42.29,22.94,13.11,142.82,64.84,133.67,117803,2016-04-11 18:30:57:086
-5.8941,-13.4551,-6.013,-4.5798,-8.5971,-1.1339,-0.6965,-4.6075,1.8939,-0.8666,-1.1336,0.4571,43.21,23.38,0.88,156.59,63.02,106.8,117903,2016-04-11 18:30:57:186
2.8383,-5.7299,-0.805,-4.7243,-8.4443,-1.5953,4.8361,-3.2156,-4.1495,-2.2389,-1.9834,-0.2257,44.43,22.89,-1.5,147.87,59.44,108.66,118003,2016-04-11 18:30:57:286
0.6,-7.0392,0.7989,-2.9671,-8.6783,-3.4717,8.0473,4.0791,6.3183,-2.2186,-1.1133,-1.9981,42.65,24.37,-4.48,126.35,59.9,120.09,118103,2016-04-11 18:30:57:386
-4.3745,-19.4222,0.1658,-1.0411,-8.8979,-3.9892,-3.1129,-11.2757,8.079,-2.0349,-0.6573,-3.0432,38.39,31.42,-2.66,79.49,65.14,165.37,118203,2016-04-11 18:30:57:486
-6.2116,-5.22,-0.2995,0.0267,-8.4515,-4.974,-5.5134,1.0967,3.5424,-1.073,-3.2031,-2.4323,21.19,46.68,-1.42,40.25,59.52,-179.69,118304,2016-04-11 18:30:57:587
-3.7231,4.0928,0.1321,-1.3791,-8.6718,-4.3667,-5.4649,7.1959,5.9948,-0.0568,-3.0827,0.4169,13.07,49.44,0.01,27.56,59.52,-179.69,118403,2016-04-11 18:30:57:686
-1.9057,-9.7593,-2.3765,-2.797,-9.0105,-2.6755,5.5332,2.6003,1.1233,1.8862,1.7789,1.4698,22.99,42.85,-8.23,72.63,66.75,133.73,118503,2016-04-11 18:30:57:786
-1.7766,-16.7957,6.6288,-3.4263,-8.7914,-2.6726,-8.8172,-7.2769,0.0905,0.2998,0.0207,0.5789,27.42,39.86,-11.6,78.6,63.7,127.96,118603,2016-04-11 18:30:57:886
-8.2648,-12.8777,-7.6499,-4.3985,-8.7422,-0.631,2.3969,-10.4172,5.3828,1.2961,-2.548,0.3363,30.17,35.42,-13.9,92.89,61.15,116.13,118704,2016-04-11 18:30:57:987
9.7008,0.3389,-1.0672,-4.6934,-8.6105,-0.0482,-5.1345,-4.0863,-7.5532,1.0533,-0.7015,0.3093,30.04,32.71,-20.54,115.92,61.4,90.59,118803,2016-04-11 18:30:58:086
-5.4515,-17.0816,0.0448,-3.3839,-8.9987,-1.935,10.7122,8.4808,0.0844,-2.7097,-0.499,-1.6648,25.53,33.45,-23.59,84.35,66.58,119.76,118904,2016-04-11 18:30:58:187
-6.9235,-19.4222,-0.4997,-1.5762,-9.1947,-3.0238,-7.4949,-10.9443,5.1558,-1.7919,2.173,-2.4179,22.72,39.14,-16.26,58.7,69.65,152.47,119003,2016-04-11 18:30:58:286
-5.9709,5.9117,2.1375,-0.5322,-9.1788,-3.4113,-5.897,3.1164,3.2827,-0.5975,-2.5442,-0.3213,11.12,47.12,-6.7,29.14,69.39,171.13,119103,2016-04-11 18:30:58:386
1.2318,-2.2816,0.4433,-1.868,-9.525,-1.3986,2.6464,9.6843,-0.8822,2.628,1.8155,-0.0376,13.98,46.12,-10.55,69.4,76.23,126.82,119203,2016-04-11 18:30:58:486
-10.902,-12.8037,-11.618,-1.8131,-9.6304,-0.3716,0.1733,-3.2061,3.8043,1.8275,2.3705,0.3734,15.76,44.86,-15.72,101.22,79.12,101.58,119303,2016-04-11 18:30:58:586
-5.1657,-18.4506,4.5519,-4.0616,-8.926,0.0138,-3.3137,-4.8441,4.8402,0.6775,-3.6156,1.3422,22.05,40.72,-16.93,97.53,71.27,104.68,119403,2016-04-11 18:30:58:686
3.3727,-5.3906,-6.4632,-4.0578,-8.8111,1.4386,0.3199,-10.5048,-0.1199,0.7854,-2.0517,0.274,21.28,38.5,-22.74,98.55,65.53,89.81,119503,2016-04-11 18:30:58:786
2.1524,0.8195,-2.2421,-3.2219,-9.2588,-0.2546,8.2649,6.4715,-4.5127,-2.5571,0.5725,-1.3996,19.97,36.85,-28.95,98.35,70.76,94.52,119604,2016-04-11 18:30:58:887
-12.503,-19.4222,6.6077,-1.6755,-9.4081,-2.2023,3.2693,8.3865,0.0368,-3.0676,0.5741,-2.6348,16.82,43.71,-21.17,54.71,73.61,142.74,119703,2016-04-11 18:30:58:986
-7.3095,-1.5239,1.2626,1.0869,-9.3507,-2.7482,-5.9736,-4.3365,-0.8645,-0.9264,-2.97,-0.4258,5.85,49.04,-14.85,0.12,72.46,-158.42,119803,2016-04-11 18:30:59:086
-2.2185,4.1421,2.6002,-0.0335,-9.3953,-2.8102,-6.5887,12.1305,4.9165,0.9033,-1.3837,1.6882,1.66,49.75,-14.58,352.83,72.46,-158.42,119903,2016-04-11 18:30:59:186
-1.6849,-6.6242,-1.0725,-0.8942,-9.6766,-1.317,2.1756,3.0527,3.3662,1.1455,2.5304,-0.7639,11.84,45.7,-21.84,49.89,80.66,145.83,120003,2016-04-11 18:30:59:286
-2.6152,-5.1129,-0.1326,-1.3645,-9.6208,-1.3223,-3.0073,-1.2227,2.0718,1.1455,2.5304,-0.7639,11.84,45.7,-21.84,49.89,80.66,145.83,120103,2016-04-11 18:30:59:386
-2.9208,-15.4365,1.2883,-3.1056,-9.284,0.5761,-0.4557,-4.2745,5.2009,0.7344,-1.3967,1.1732,19.18,41.5,-20.14,116.09,71.21,79.49,120203,2016-04-11 18:30:59:486
1.0873,-11.9337,-6.2913,-3.0193,-9.1204,1.968,4.5024,-3.6376,-9.6827,0.4662,0.3073,0.4231,20.53,30.3,-34.14,144.3,67.01,55.06,120303,2016-04-11 18:30:59:586
-2.0158,-3.4557,-5.5172,-1.9185,-9.6054,0.4762,8.8116,6.4115,-3.4911,-1.3921,-0.8211,-0.7917,23.3,30.06,-35.75,145.04,68.44,56.9,120404,2016-04-11 18:30:59:687
-9.0589,-16.8325,-2.5987,1.3291,-9.3773,-2.5437,-7.8924,-9.2024,-0.6156,-2.5448,3.0376,-1.6702,17.51,41.98,-20.72,9.29,72.98,-152.41,120503,2016-04-11 18:30:59:786
-6.7291,4.76,5.9881,2.0827,-8.964,-3.3882,-6.6582,-3.1416,0.9901,-1.0103,1.7974,-2.2566,17.41,46.17,-13.2,15.78,72.98,-152.41,120603,2016-04-11 18:30:59:886
3.427,-0.0454,-1.7049,0.3829,-9.6971,-1.4109,1.1576,7.7671,1.2443,3.0191,1.0161,1.6682,12.79,47.91,-7.49,31.91,81.43,-164.82,120703,2016-04-11 18:30:59:986
-15.7182,-16.8564,0.4216,0.3478,-9.7878,-0.4976,0.6321,-3.6182,-0.4544,1.6328,2.7744,0.2547,20.03,44.94,-13.98,31.77,81.43,-164.82,120803,2016-04-11 18:31:00:086
-12.078,-16.1542,-2.3473,-1.4093,-9.6883,-0.5671,-9.5925,0.9994,1.6192,-0.2155,1.6099,1.5258,25.73,39.42,-15.16,117.42,81.09,111.92,120903,2016-04-11 18:31:00:186
0.2617,-18.2079,-15.1705,-1.9111,-9.6006,0.5887,-2.2574,-8.8751,5.1342,1.0912,-1.1288,1.045,31.82,36.4,-12.71,173.5,78.23,72.88,121004,2016-04-11 18:31:00:287
9.2337,-2.5416,-5.2555,-1.6429,-9.5655,1.4046,5.7122,-1.4968,-4.9232,-1.0005,-0.6952,0.2187,35.03,26.98,-23.38,188.65,77.27,49.47,121103,2016-04-11 18:31:00:386
-5.8066,-16.0379,0.6363,-0.9633,-9.7274,-0.7874,9.2213,8.2901,-3.0982,-3.3803,0.0591,-0.85,35.39,28.77,-21.58,190.19,77.27,49.47,121203,2016-04-11 18:31:00:486
-2.5573,-19.4222,-1.1397,3.1427,-8.8715,-2.7549,-6.8985,-11.4824,-1.6842,-0.9398,3.1367,-3.2301,30.64,41.74,-3.81,22.84,64.78,-131.24,121304,2016-04-11 18:31:00:587
-2.2633,5.2939,3.1964,3.6474,-8.3525,-3.6197,-8.2553,-3.058,0.3614,-1.5689,-1.5698,-0.9217,22.91,46.5,2.58,26.52,58.4,-134.78,121403,2016-04-11 18:31:00:686
-3.4,-5.6633,-4.7292,0.5303,-9.0024,-3.853,-2.8429,7.8519,2.2879,0.7375,0.1075,1.8343,26.84,43.82,2.93,56.31,66.63,-172.16,121503,2016-04-11 18:31:00:786
-7.1227,-3.909,5.0959,0.8765,-9.2402,-3.1656,-8.6867,1.0426,0.0889,0.3569,1.4842,0.7627,28.12,43.14,4.44,57.59,70.43,-164.52,121606,2016-04-11 18:31:00:889
3.1469,-17.352,-4.3833,-0.6806,-9.394,-2.7314,-6.0809,-2.1209,1.8285,0.6724,-2.8832,2.3694,31.51,41.69,4.21,59.92,70.43,-164.52,121703,2016-04-11 18:31:00:986
-4.1602,-9.2007,-6.1898,-2.92,-9.3105,-0.9794,-1.1415,-4.8237,-1.2833,0.0668,-1.5646,1.2691,38.57,33.06,-8.02,138.16,71.7,108.54,121803,2016-04-11 18:31:01:086
10.7791,-1.6875,-3.7337,-3.6018,-9.0566,-1.084,1.5874,-0.1526,-5.0218,-1.1768,-2.1045,0.679,39.69,31.71,-11.09,132.44,67.45,106.75,121903,2016-04-11 18:31:01:186
-17.8701,-19.4222,7.5509,-2.7273,-8.4089,-4.2454,3.8112,-1.5407,5.3371,-2.4117,1.8596,-1.9479,31.96,38.28,-7.48,72.35,59.03,147.28,122003,2016-04-11 18:31:01:286
-4.4799,-16.6285,-0.072,-1.0004,-8.503,-4.7821,0.1055,-11.1104,4.7916,0.0477,-0.1518,-3.0691,29.22,42.13,-0.39,60.94,60.12,168.18,122103,2016-04-11 18:31:01:386
-9.3726,-0.3598,-1.8691,-3.0661,-8.0403,-4.7036,-4.9234,8.4544,7.4293,-1.4715,-5.8398,-0.4147,21.62,45.92,-0.36,47.5,58.77,167.08,122203,2016-04-11 18:31:01:486
3.2616,-4.4665,5.2577,-4.102,-7.6395,-4.5807,-4.467,3.0397,-1.1711,-0.3233,-3.6,0.979,19.34,46.51,-1.18,40.77,55.07,146.9,122303,2016-04-11 18:31:01:586
-4.6118,-1.1857,7.3105,-3.2273,-8.2708,-4.1652,-8.4852,-8.0193,-0.2206,1.1897,-0.6656,-2.1865,20.47,46.61,-5.18,44.24,55.65,139.7,122404,2016-04-11 18:31:01:687
-1.6953,-18.2846,-7.561,-4.2648,-7.8736,-3.9986,-1.8864,2.6664,8.7706,-1.5431,-0.4167,0.6026,16.74,49.12,-3.32,38.01,57.5,142.23,122503,2016-04-11 18:31:01:786
-1.028,-13.0152,-7.5109,-5.5764,-7.93,-1.4795,0.5537,-5.2409,-2.7587,1.8288,-1.2274,0.5584,22.57,43.88,-10.44,57.32,53.96,104.86,122603,2016-04-11 18:31:01:886
6.8433,1.0963,-2.6441,-5.9703,-7.6635,-1.3404,5.1826,-6.0282,-6.6644,-0.2318,-1.4271,0.9782,23.31,41.72,-16.54,61.83,51.39,102.65,122704,2016-04-11 18:31:01:987
-10.2964,-19.4222,-12.3796,-4.1795,-7.8781,-4.079,5.5916,3.9904,3.0321,-3.1151,0.5053,-1.9991,22.02,43.18,-12.47,50.58,53.45,134.3,122803,2016-04-11 18:31:02:086
-4.9146,-14.823,1.5364,-2.9846,-8.065,-4.7136,-2.8521,-6.3217,5.7446,-1.302,-3.3884,-1.8644,7.14,50.63,-2.34,15.3,57.63,151.49,122903,2016-04-11 18:31:02:186
-5.9068,0.8035,-0.4406,-4.9354,-7.5651,-3.8186,-6.3677,10.1534,8.5472,-1.2786,-5.2161,0.305,0.86,51.08,1.23,0.64,55.33,147.66,123003,2016-04-11 18:31:02:286
6.6646,-5.8532,5.3877,-6.3978,-6.9649,-2.594,10.5104,1.4302,6.5618,0.2233,-0.8716,-0.2271,6.83,50.8,3.85,357.96,45.25,112.07,123103,2016-04-11 18:31:02:386
-5.0407,-2.2184,-0.4686,-5.9062,-7.6326,-1.7408,-5.0743,-8.4967,-1.8911,1.0925,-0.8409,-1.204,4.58,50.26,0.22,3.37,45.25,112.07,123203,2016-04-11 18:31:02:486
2.6998,-13.8073,0.1944,-7.1093,-6.6677,1.0818,3.4035,-11.8453,-1.2125,0.7827,-2.6006,0.8449,9.6,50.4,0.02,357.12,42.84,81.35,123303,2016-04-11 18:31:02:586
6.6483,-6.9677,-6.663,-7.0129,-6.5296,2.0867,0.2779,-5.063,-7.0348,0.9202,-1.6479,0.3596,12.5,48.47,-2.2,0.05,42.84,81.35,123404,2016-04-11 18:31:02:687
1.763,0.057,-3.3615,-6.3902,-7.3268,1.286,11.7288,5.2712,-4.0244,-4.2292,-0.8006,-0.7474,15.12,47.79,-2.14,352.27,42.3,69.13,123503,2016-04-11 18:31:02:786
-6.0846,-19.4222,-16.8843,-5.3817,-8.1259,-1.0851,3.9479,-1.3631,-0.4287,-2.0446,3.3869,-1.9213,11.9,47.83,9.97,333.67,48.34,78.62,123603,2016-04-11 18:31:02:886
-5.4756,-14.3106,-0.7305,-4.0049,-8.7815,-1.7366,-4.1944,-1.828,1.6441,-1.3718,-4.3474,-0.0834,-4.71,47.31,16.47,318.7,63.2,116.38,123703,2016-04-11 18:31:02:986
-3.8073,1.9321,-2.606,-5.1401,-8.2934,-0.9844,-2.3388,10.0004,3.8587,-0.5783,-3.0751,1.3806,-0.57,44.86,21.56,314.4,57.75,100.84,123803,2016-04-11 18:31:03:086
-12.0233,-17.1844,-3.0446,-4.0497,-8.8684,-1.0593,5.7136,4.2396,5.7927,-0.3204,3.8026,-1.7639,5.36,47.43,15.69,321.55,57.73,97.15,123903,2016-04-11 18:31:03:186
-6.2051,-12.9149,-1.5241,-4.9148,-8.428,-0.9918,-7.2206,-5.7885,-2.2197,0.291,-6.0454,1.4135,1.3,46.87,16.06,315.56,64.73,104.66,124003,2016-04-11 18:31:03:286
-4.2407,-12.8531,-6.6187,-5.2126,-8.2731,0.7448,1.8712,-7.86,6.004,1.4777,-0.2828,0.1398,15.65,43.54,15.81,296.7,59.25,101.41,124103,2016-04-11 18:31:03:386
5.9179,-2.3437,-4.4212,-5.5034,-8.0836,0.7337,9.1886,0.3392,-6.3283,-0.6936,-1.7313,1.0469,17.94,44.53,10.35,313.98,55.52,82.41,124203,2016-04-11 18:31:03:486
-9.8784,-19.4222,7.2096,-4.8355,-8.496,-0.7786,8.8093,7.909,-2.0012,-2.687,-1.7346,-0.1507,21.34,41.97,10.64,299.75,55.52,82.41,124303,2016-04-11 18:31:03:586
-3.9931,-18.9478,-0.6861,-2.1197,-9.4388,-1.608,-2.0568,-9.4092,-0.6,1.1461,3.2633,-2.2454,14.79,38.18,25.22,214.59,74.26,127.18,124403,2016-04-11 18:31:03:686
-4.4218,5.3516,4.2555,-2.6916,-9.2799,-1.6761,-5.9454,6.2546,3.5221,-0.602,-2.4061,-0.8152,5.88,41.91,24.27,245.18,74.26,127.18,124503,2016-04-11 18:31:03:786
7.0748,-8.6001,5.8655,-3.0335,-9.309,-0.557,5.6175,2.1596,0.1319,1.1641,0.4977,0.4165,16.97,38.41,26.64,250.44,65.65,109.26,124603,2016-04-11 18:31:03:886
-6.878,-11.2861,-2.1906,-2.5966,-9.4561,0.1045,-8.4076,-4.5129,-3.8467,2.2819,2.4144,-2.4185,16.89,41,24.07,259.47,74.63,87.7,124703,2016-04-11 18:31:03:986
-0.1604,-14.1375,1.1306,-4.2505,-8.6598,1.7637,1.9516,-10.5328,0.0376,0.0488,-3.8338,1.8064,15.05,42.87,21.2,285.27,66.63,81.55,124803,2016-04-11 18:31:04:086
4.127,-3.4766,-4.9906,-4.2076,-8.455,2.6419,0.5537,-3.0862,-8.211,1.4946,-1.1651,0.3289,21.85,41.3,17.42,286.28,62.01,67.46,124903,2016-04-11 18:31:04:186
-2.3902,-6.7115,-2.6654,-3.2999,-9.1524,1.2309,8.1967,7.7398,-2.442,-2.5343,-0.9608,-0.695,27.36,39.29,13.56,283.65,60.82,55.48,125003,2016-04-11 18:31:04:286
-5.723,-19.4222,-3.7712,-2.0792,-9.5681,-0.5466,-1.7178,-2.3715,-2.6968,-2.304,2.8265,-1.9131,26.57,37.34,18.93,207.53,77.34,104.73,125103,2016-04-11 18:31:04:386
-6.9528,1.4622,2.2017,-0.9812,-9.755,-0.2166,-7.0592,5.7804,1.1278,-0.1809,-2.1773,-0.2611,9.79,41.21,28.14,243.74,84.28,103.84,125203,2016-04-11 18:31:04:486
0.2085,-3.1018,3.5044,-2.0342,-9.5842,-0.4192,-2.615,10.905,-1.4047,1.0144,0.948,0.0762,14.12,39.99,27.74,246.98,77.77,101.65,125303,2016-04-11 18:31:04:586
-8.0853,-15.3533,2.6111,-1.9499,-9.5785,0.7879,1.1878,6.3567,0.4258,1.4534,2.4002,-0.6086,21.9,40.7,25.71,248.05,76.98,87.14,125403,2016-04-11 18:31:04:686
-5.5366,-17.4521,6.4672,-2.6277,-8.914,3.1314,2.6935,5.444,-0.2211,1.5553,-3.389,1.4406,24.03,41.65,19.8,276.07,73.08,57.44,125503,2016-04-11 18:31:04:786
-0.9482,-7.7813,-5.8935,-2.7873,-8.4828,4.0551,-2.4674,-8.1477,-4.5151,1.5376,-0.2321,0.3925,28.26,41.19,11.82,297.28,59.88,34.5,125603,2016-04-11 18:31:04:886
4.8671,-0.3937,-2.2049,-2.6847,-8.8282,3.3204,7.4216,2.1491,-6.8253,-1.629,0.3739,-0.7108,31.12,41.43,7.65,290.75,58.73,35.89,125703,2016-04-11 18:31:04:986
-19.7251,-19.4222,6.338,-1.4565,-9.4969,1.9642,4.1727,6.3552,-4.2995,-2.0453,0.717,-2.8264,28.61,41.61,12.12,275.78,75.56,36.56,125803,2016-04-11 18:31:05:086
-9.8354,-15.129,-1.9134,0.0286,-9.6641,1.6655,-12.0977,-7.8395,-3.9704,-0.7987,1.8273,-1.4122,2.95,46.01,24.09,344.69,80.11,12.92,125903,2016-04-11 18:31:05:186
-1.9398,3.2812,2.3881,-0.2352,-9.6704,1.612,-4.5701,9.1184,1.0131,0.6129,0.7681,1.2146,-1.41,44.88,27.76,2.41,80.22,-0.98,126003,2016-04-11 18:31:05:286
8.023,-13.2581,3.0454,-2.167,-8.5401,4.306,7.7753,-4.221,-1.6652,2.4904,2.5953,-1.8462,0.03,49.9,14.13,349.94,60.56,26.71,126103,2016-04-11 18:31:05:386
-19.5535,-19.3081,3.705,-2.7418,-8.1382,4.7354,-4.5272,-2.0714,-5.7846,0.4075,0.0423,2.1661,-3.61,52.36,6.41,0.75,56.08,30.07,126203,2016-04-11 18:31:05:486
-2.99,-14.3228,4.3333,-4.215,-6.9181,5.5267,-6.8523,-5.3696,-1.133,1.6076,1.5679,0.3826,6.62,54.07,3.63,347.98,44.87,37.33,126304,2016-04-11 18:31:05:587
2.3178,-10.3195,-13.697,-5.0239,-6.3271,5.5586,3.8237,-8.5807,0.3734,1.494,-0.843,0.5617,6.26,52.42,-0.21,352.08,44.87,37.33,126403,2016-04-11 18:31:05:686
-4.1776,-5.0277,-5.6512,-5.5054,-7.4552,3.2065,9.5684,1.9021,-5.4681,-0.8451,1.021,-0.852,8.76,51.78,-10.24,9.7,49.48,59.78,126503,2016-04-11 18:31:05:786
-16.9934,-19.4222,7.5445,-4.5831,-8.62,0.9282,0.6128,1.327,-6.986,-2.0992,2.7992,-2.477,7.13,53.77,-7.33,5.19,49.48,59.78,126603,2016-04-11 18:31:05:886
-2.8893,-8.1224,0.2947,-1.9679,-9.2386,-2.6357,-3.4719,-11.7532,-5.2831,-1.8398,2.8441,-2.3394,-13.46,53.48,4.2,344.56,70.35,107.99,126703,2016-04-11 18:31:05:986
-3.0513,3.4445,7.1557,-3.9503,-8.8141,-1.6961,1.0934,9.399,6.8091,1.7462,-0.0963,2.0296,-15.74,47.44,17.39,308.18,64.61,138.35,126803,2016-04-11 18:31:06:086
-2.3351,-9.8317,-5.8274,-4.304,-8.8073,-0.2793,7.5044,0.1495,-0.7812,4.0751,2.2231,1.3283,-10.09,50.4,11.98,337.35,63.91,93.71,126903,2016-04-11 18:31:06:186
-6.9952,-9.6838,-1.5418,-4.7524,-8.57,-0.3741,-5.3215,-6.1818,-1.0379,0.1312,1.2326,0.7546,-5.37,52.24,-8.11,14.1,60.91,94.5,127003,2016-04-11 18:31:06:286
-1.9164,-16.1869,-2.4624,-5.3359,-8.2027,0.6444,2.8627,-9.1503,1.6614,0.3472,-1.5773,1.5641,-1.68,52.07,-10.22,19.22,56.77,83.11,127103,2016-04-11 18:31:06:386
6.616,-9.3653,-5.9025,-5.7006,-7.6955,2.11,-0.1016,-7.1126,-12.5276,0.2312,-0.075,0.7679,3.51,49.19,-16.94,34.19,53.63,67.11,127203,2016-04-11 18:31:06:486
-2.1705,-8.125,1.5413,-5.5056,-8.0939,0.5888,14.4473,2.6138,-5.0163,-2.8229,0.0329,-0.0764,5.01,49.1,-17.38,32.78,51.7,69.69,127303,2016-04-11 18:31:06:586
-4.1679,-19.4222,3.1917,-2.4563,-9.3137,-1.8418,-1.4795,-7.9225,3.8138,-0.1442,1.147,-3.2101,-2.85,52.05,1.71,348.96,71.76,126.86,127403,2016-04-11 18:31:06:686
-8.1359,-0.4977,4.679,-1.3454,-9.6616,-1.0068,-0.9041,-11.2854,1.6485,0.7407,-3.2061,-1.7675,-13.83,51.11,5.13,323.64,80.13,126.81,127503,2016-04-11 18:31:06:786
-8.9904,-0.4426,-8.3878,-3.4337,-9.1858,0.0144,-4.0338,8.8884,-5.1565,-1.1599,-3.4218,2.0805,-8.65,48.54,14.65,317.53,77.96,96.29,127603,2016-04-11 18:31:06:886
-4.5066,-12.9871,7.6345,-3.6734,-9.0923,0.0862,3.9961,3.9858,3.4526,0.3793,0.1666,-0.3196,-0.24,48,18.98,311.62,69.5,89.76,127703,2016-04-11 18:31:06:986
-6.3368,-11.5172,-7.7282,-3.4436,-9.1214,1.0542,-8.3404,-9.2148,-2.7822,1.0324,-2.9052,1.142,-4.07,50.63,9.97,341.45,68.45,72.98,127803,2016-04-11 18:31:07:086
-4.0691,-7.4237,-6.5209,-3.572,-8.6898,2.8105,-0.5633,-3.729,-2.995,1.9004,-3.0701,0.9912,1.49,50.61,7.67,345.82,62.39,51.8,127904,2016-04-11 18:31:07:187
3.6494,-4.2779,-4.699,-3.2186,-8.452,3.7915,5.5562,0.1666,-8.7753,-0.6445,-0.8251,-0.2936,5.36,51.85,-3.33,355.05,59.53,40.33,128003,2016-04-11 18:31:07:286
-13.6503,-19.4222,-4.6217,-0.9511,-9.6341,1.5654,4.5956,5.4125,-0.8169,-2.1133,2.2212,-4.1582,1.5,50.88,7.79,338.93,79.24,31.28,128103,2016-04-11 18:31:07:386
-14.5695,-15.9172,2.4142,0.3299,-9.7769,0.6883,-14.6163,-11.3924,-5.5736,-0.7656,4.1548,-1.3058,-14.51,48.22,11.4,68.6,85.54,-25.61,128203,2016-04-11 18:31:07:486
-4.1332,5.0392,7.597,-0.1041,-9.7991,0.3712,-3.8302,12.1646,6.2637,-1.7461,0.5918,-0.3834,-22.47,44.87,11.01,144.74,86.77,-84.76,128303,2016-04-11 18:31:07:586
9.0907,-12.0606,4.2548,-1.209,-9.5139,2.0479,2.1235,4.8335,-0.1951,2.4067,2.5279,2.0599,-22.18,43.57,9.86,24.89,75.97,30.56,128403,2016-04-11 18:31:07:686
-10.2531,-18.9083,4.7553,-3.2083,-8.9077,2.5555,-7.6081,-5.0044,-1.8026,0.7459,3.2176,-0.1196,-18.55,48.72,-12.56,39.56,65.28,51.46,128504,2016-04-11 18:31:07:787
3.2123,-16.0679,6.5385,-4.7637,-8.2809,2.2145,-4.3988,-8.1093,0.5786,-0.5121,1.8311,3.3022,-17.18,45.32,-19.07,38.78,57.61,65.07,128603,2016-04-11 18:31:07:886
1.4872,-4.2214,-4.1411,-4.4275,-8.6632,1.2316,7.9158,-3.537,-5.2512,0.5794,3.6376,-1.3772,-4.94,44.87,-27.34,55.28,62.06,74.46,128704,2016-04-11 18:31:07:987
-4.7349,-5.1699,-7.3267,-3.9907,-8.9541,0.2625,5.0488,3.3029,-4.4843,-0.2054,1.9342,-0.532,-3.66,42.84,-29.54,57.31,65.93,86.24,128803,2016-04-11 18:31:08:086
-4.7349,-5.1699,-7.3267,-3.9907,-8.9541,0.2625,5.0488,3.3029,-4.4843,-0.2054,1.9342,-0.532,-3.66,42.84,-29.54,57.31,65.93,86.24,128903,2016-04-11 18:31:08:186
-3.2257,-10.2515,-1.3537,0.4691,-9.2823,-3.1289,-3.1959,-11.5107,2.6493,-0.9631,3.8348,-1.4854,-4.45,47.39,-20.48,348.27,71.18,-171.47,129003,2016-04-11 18:31:08:286
-4.886,1.2776,2.6746,0.2141,-9.4783,-2.5074,-4.5168,8.5929,5.3757,1.4498,1.255,0.9779,-9.22,51.39,-12.74,337.95,75.13,-175.12,129103,2016-04-11 18:31:08:386
0.0169,-1.8,2.7288,-0.7189,-9.736,-0.9296,-1.4851,3.9635,1.7213,2.869,2.3694,1.9899,-5.1,49.34,-18.56,17.84,83.12,142.28,129203,2016-04-11 18:31:08:486
-4.6271,-19.4222,0.9706,-2.902,-9.3401,0.7156,-4.9163,-11.5042,1.8824,1.7692,-0.536,1.5754,12.8,40.79,-27.89,103.79,72.25,76.15,129303,2016-04-11 18:31:08:586
13.3048,-8.1325,1.2339,-3.8591,-8.3674,3.3562,5.8852,-6.975,-11.5038,1.3701,2.0682,-0.0404,21.21,27.42,-37.27,150.37,61.95,47.51,129403,2016-04-11 18:31:08:686
8.0168,2.9865,-4.3127,-3.0617,-9.062,2.1625,12.3139,9.3752,-3.7326,-1.8239,0.5888,-1.4238,23.49,26.23,-37.98,147.3,67.53,54.77,129503,2016-04-11 18:31:08:786
-9.6579,-18.7557,1.4131,-0.8906,-9.6984,-1.1483,-16.3679,-11.2142,-1.4903,-2.4917,2.9749,-1.5347,14.77,39.15,-28.22,122.64,78.55,73,129603,2016-04-11 18:31:08:886
-6.7328,-10.2037,-0.6728,0.0188,-9.4313,-2.687,-6.9919,-10.3101,4.9538,-2.8129,0.3676,-1.3612,16.12,44.59,-21.06,62.32,81.48,142.2,129703,2016-04-11 18:31:08:986
-2.1359,8.2376,6.2757,-1.5037,-9.3142,-2.6749,-3.875,12.8981,8.7419,2.6815,0.7114,2.0737,15.05,49.47,-8.28,48.62,71.77,150.66,129803,2016-04-11 18:31:09:086
-2.1448,-3.398,-2.9175,-0.8023,-9.742,-0.7871,10.7165,-3.4977,2.2315,2.9166,2.7771,-2.3167,21.49,44.25,-13.85,90.25,83.42,134.45,129903,2016-04-11 18:31:09:186
-5.8445,-12.1037,1.7384,0.8395,-9.7412,0.7584,-10.2395,-4.8887,1.3049,1.0107,-1.5227,0.5439,12.8,45.17,-19.72,273.54,83.38,-47.9,130003,2016-04-11 18:31:09:286
2.0633,-11.4556,1.4408,0.6013,-9.7493,0.8716,-2.9421,0.6911,0.1373,-0.681,3.2927,-0.3697,20.85,39.55,-20.47,269.62,83.8,-34.6,130103,2016-04-11 18:31:09:386
5.6002,-1.2445,-5.0266,0.6584,-9.54,2.1739,3.5075,1.9413,-5.2896,0.7843,1.7388,-0.3128,26.7,37.9,-18.71,267.67,76.61,-16.85,130204,2016-04-11 18:31:09:487
-11.0908,-19.4222,-1.752,1.3173,-9.5554,1.769,4.8364,9.3271,-5.4315,-2.1949,1.2933,-1.9815,29.19,37.05,-16.05,291.15,77,-36.67,130303,2016-04-11 18:31:09:586
-5.6438,-18.7648,-5.4133,3.0348,-9.3252,0.0131,-11.1336,-11.5855,-2.6054,-1.6926,3.3672,-1.9029,26.06,41.19,-7.46,349.23,71.97,-89.75,130403,2016-04-11 18:31:09:686
-2.6249,2.9794,5.7851,2.9209,-9.2971,-1.0965,-7.2264,-9.7685,-3.9886,-2.4202,1.175,-1.1661,23.72,43.15,0.85,1.42,71.97,-89.75,130503,2016-04-11 18:31:09:786
7.4335,-4.4277,-3.6772,0.6798,-9.7474,0.8349,-2.5167,11.5901,5.8565,2.074,1.3095,2.0627,27.17,42.64,10.35,33.5,78.18,-112.4,130603,2016-04-11 18:31:09:886
-11.373,-13.4545,-0.6942,-0.3149,-9.6013,1.9715,-9.5374,-7.4843,-3.1216,0.5957,3.3117,-0.4852,30.94,37.42,4.93,283.57,78.25,9.08,130703,2016-04-11 18:31:09:986
-3.7178,-16.5482,8.5072,-1.3328,-9.631,1.2795,-5.7444,-4.7181,-2.1985,-0.4116,3.0194,0.7619,28.71,39.31,6.46,287.38,78.25,9.08,130803,2016-04-11 18:31:10:086
3.0309,-11.0042,-11.9053,-1.8044,-9.5176,1.5265,3.4913,-7.9928,-5.7379,0.5157,-2.0574,0.3074,31.57,34.29,13.87,257.87,76.05,49.77,130903,2016-04-11 18:31:10:186
6.9722,-0.7158,-3.2367,-2.0177,-9.5426,1.0184,7.0103,1.4061,-2.6182,-0.9194,-0.2754,0.5094,35.74,34.17,7.02,227.81,76.67,63.22,131003,2016-04-11 18:31:10:286
-16.2741,-19.4222,6.1331,0.0299,-9.5644,-2.1663,3.3073,-1.4281,-0.3426,-3.1455,0.3865,-2.2971,37.43,33.36,7.93,187.72,79.56,95.82,131103,2016-04-11 18:31:10:386
-2.5874,-14.0772,-1.4321,2.2127,-9.1602,-2.714,-12.784,-11.5185,9.1964,-1.8899,1.5301,-3.5712,31.52,37.39,14.38,98.91,77.24,-179.21,131203,2016-04-11 18:31:10:486
-3.0945,5.3445,4.594,1.0086,-8.7239,-4.3643,-4.5665,1.2561,5.7665,-0.8341,-3.5077,0.8442,17.85,42.3,21.63,65.81,63.05,-144.68,131303,2016-04-11 18:31:10:586
2.2673,-5.457,0.9828,-0.0083,-8.9565,-3.9938,-4.8295,11.9196,8.0544,0.6126,-1.1827,1.0759,24.04,40.7,20.26,77.47,62.82,-166.99,131403,2016-04-11 18:31:10:686
0.0758,-6.6353,-0.5007,-0.9179,-9.1272,-3.4674,-11.6593,-6.1659,2.4818,-0.4977,1.5343,2.4556,24.92,42.96,16.85,90.64,70.25,-177.17,131503,2016-04-11 18:31:10:786
3.8019,-17.4705,8.5868,-2.307,-8.6929,-3.9091,2.746,0.0899,2.1384,-0.6612,-0.284,1.9463,28.29,41.62,16.07,108.63,62.43,149.45,131604,2016-04-11 18:31:10:887
7.5676,-5.5781,-3.5466,-3.3664,-9.1255,-1.2503,0.1553,-5.9477,-8.3875,1.3432,-0.4937,1.0841,34.29,38.69,4.58,157.19,68.52,110.37,131703,2016-04-11 18:31:10:986
7.0803,3.1003,-3.6712,-4.0113,-8.8418,-1.3789,9.8936,1.6677,-3.0548,-0.8632,-1.4294,1.2302,37.91,36.07,0.36,146.47,68.52,110.37,131804,2016-04-11 18:31:11:087
-17.7247,-19.4222,0.6532,-2.6632,-8.3443,-4.4102,1.7146,-3.648,3.7779,-2.5992,1.2162,-2.8224,38.54,36.64,3.28,121.75,59.95,122.4,131903,2016-04-11 18:31:11:186
-0.3708,-19.2655,-2.6951,-0.3239,-8.492,-4.894,-0.7564,-11.4258,4.792,-0.7904,-2.7,-0.4926,24.15,44.02,19.38,79.47,59.99,176.21,132003,2016-04-11 18:31:11:286
-1.2966,0.6486,4.0506,-1.8594,-8.2761,-4.9213,-4.285,-1.4311,1.5981,-0.2548,-2.1644,1.7531,25.41,40.96,18.59,91.59,57.56,159.3,132103,2016-04-11 18:31:11:386
3.8594,-3.5281,4.3864,-1.7094,-8.6773,-4.2371,-0.3617,-0.3331,0.904,-0.104,2.2826,-0.9815,29.01,40.62,14.17,95.24,62.23,158.03,132203,2016-04-11 18:31:11:486
-6.6316,-17.6792,-3.5487,-1.738,-8.7144,-4.1483,-6.6428,-6.2196,6.6984,0.6244,0.9697,2.2214,25.87,41.79,17.6,104.55,62.7,157.27,132303,2016-04-11 18:31:11:586
-0.2435,-12.8301,-3.9898,-4.0083,-8.9236,-0.6887,3.8329,-5.7452,-3.219,1.8624,-7.7205,1.6016,28.58,37.36,16.63,221.72,65.5,99.75,132403,2016-04-11 18:31:11:686
8.0895,-2.2792,-3.8065,-4.448,-8.7361,-0.2567,-0.0251,-0.7098,-7.165,1.7956,0.3713,-0.1228,38.96,33.04,4.37,185.02,62.98,93.3,132504,2016-04-11 18:31:11:787
0.0667,-8.8811,-1.7235,-4.2147,-8.5981,-2.1165,7.177,6.3946,-0.9016,-2.2968,-1.9444,-0.2729,42.88,28.42,0.16,136.35,61.25,116.66,132603,2016-04-11 18:31:11:886
-6.4455,-18.7853,-5.1482,-3.0218,-8.5385,-3.7595,-2.123,-11.5034,7.455,-3.9153,1.0596,-1.9951,40.79,29.87,1.12,135.94,61.25,116.66,132703,2016-04-11 18:31:11:986
-6.559,0.6768,3.7837,-3.4485,-8.4607,-3.563,-2.2751,-5.1547,2.2436,-0.6675,-3.5419,-1.06,30.46,37.83,12.52,108.68,62.19,147.57,132803,2016-04-11 18:31:12:086
0.8891,-3.7827,11.2404,-4.9022,-7.9362,-3.0259,-1.6476,10.1126,7.4475,-1.2334,-4.1762,1.1917,29.48,39.61,9.83,103.66,59.63,135.94,132904,2016-04-11 18:31:12:187
-13.848,-15.9398,-2.9841,-3.8425,-8.7494,-2.2032,-3.2876,-6.8255,-4.3913,2.4046,2.7795,-1.3582,35.68,36.45,2.69,120.62,58.97,120.58,133003,2016-04-11 18:31:12:286
3.2761,-16.7253,0.517,-4.9641,-8.1389,-2.2993,-0.6042,-1.0368,3.0915,-0.0013,0.5683,2.0276,30.46,40.68,5.12,100.28,56.09,114.85,133103,2016-04-11 18:31:12:386
-3.8422,-11.4594,-10.7803,-6.1717,-7.5781,-0.8082,0.2785,-5.3183,-7.0356,1.1479,-1.1572,0.8775,37.14,34.59,1.02,126.9,52.53,106.36,133203,2016-04-11 18:31:12:486
6.1714,0.7376,-1.6307,-6.8694,-6.9862,-0.4187,12.9506,4.7318,-2.6219,-1.9913,-1.7723,0.664,39.13,29.31,-13.46,122.83,47.81,91.69,133303,2016-04-11 18:31:12:586
-8.0479,-19.4222,6.5038,-6.1366,-7.4479,-1.7437,9.2737,2.3306,1.7773,-3.3872,-0.8242,-1.5612,38.62,30.54,-12.71,109.43,45.43,93.49,133403,2016-04-11 18:31:12:686
-6.6358,-14.2557,-0.9341,-3.5098,-8.6957,-2.8701,-2.8075,-10.5677,-5.1331,-0.9258,-1.7903,-1.8615,27.33,44.14,-1.3,75.59,58.43,121.34,133504,2016-04-11 18:31:12:787
-4.1918,6.6132,5.7805,-4.4389,-8.4493,-2.253,-3.3506,-3.0768,2.0273,-0.8913,-4.2035,0.3764,22.49,47.09,-0.23,64.55,62.46,129.27,133603,2016-04-11 18:31:12:886
-2.6246,-2.8329,1.5366,-4.7983,-8.5374,-0.5093,0.7921,7.8492,-6.2369,2.1654,0.4722,-1.8333,24.91,44.84,-4.86,59.56,55.63,103.74,133703,2016-04-11 18:31:12:986
-3.2839,-1.386,3.8455,-4.1514,-8.8846,-0.0263,-7.3008,-3.6764,-1.5744,0.8067,1.1093,-0.548,19.68,46.5,-7.52,80.22,64.95,90.36,133803,2016-04-11 18:31:13:086
3.0182,-10.3974,-2.6425,-5.7097,-7.9682,0.2792,6.1683,-8.6568,-0.5315,0.797,-2.129,1.4146,24.46,44.07,-6.27,74.43,59.42,95.03,133903,2016-04-11 18:31:13:186
3.2651,-8.2133,-4.2991,-6.0727,-7.5981,1.2496,0.9835,-5.7428,-7.6754,0.5461,-1.3046,0.9863,26.63,41.99,-13.51,64.88,50.79,78.37,134003,2016-04-11 18:31:13:286
-0.7889,-6.1747,0.8498,-5.9916,-7.7258,0.7638,12.6705,5.8226,-3.4454,-3.4939,-1.0468,-0.9808,26.91,40.54,-17.42,79.64,51.98,82.74,134103,2016-04-11 18:31:13:386
-7.618,-19.4222,-1.655,-4.687,-8.5681,-0.8888,4.0865,-1.8391,2.1932,-2.5506,0.4618,-3.1509,22.11,44.6,-10.67,40.77,51.98,82.74,134203,2016-04-11 18:31:13:486
-9.2404,-1.811,2.5833,-2.4876,-9.3707,-1.4741,-3.0727,-10.7799,1.2052,-0.4004,-4.0822,-0.307,4.99,50.46,-4.14,25.46,72.85,120.65,134303,2016-04-11 18:31:13:586
-4.3417,1.032,-2.274,-3.2678,-9.2043,-0.8793,-5.4642,0.6288,1.433,-0.1057,-3.0103,1.4495,3.22,51.02,-3.68,18.9,72.85,120.65,134403,2016-04-11 18:31:13:686
-10.5325,-14.4474,1.4441,-3.9923,-8.94,-0.5548,3.243,5.4787,0.1985,0.2698,-0.1381,1.2118,7.98,50.34,-3.38,16.55,65.73,97.91,134503,2016-04-11 18:31:13:786
-7.4801,-18.9972,-0.2699,-4.4924,-8.6867,-0.7278,-1.9469,-8.5715,3.3041,-2.0008,-0.0648,0.785,3.82,51.29,-5.74,20.96,67.15,111.57,134603,2016-04-11 18:31:13:886
-1.9339,-13.4269,-7.3749,-4.6875,-8.5103,1.3315,2.6256,-5.0148,-3.944,1.0945,-6.616,1.504,7.3,50.41,0.18,354.25,60.2,74.14,134703,2016-04-11 18:31:13:986
9.4812,-5.9997,-5.8276,-4.7314,-8.3375,2.0664,12.2634,1.2287,-6.8606,-0.3561,-1.6279,0.8936,11.81,48.33,-10.84,23.43,58.23,66.41,134803,2016-04-11 18:31:14:086
1.42,-7.6393,2.2104,-4.1782,-8.8336,0.8249,7.8295,7.0942,-3.1743,-2.391,-2.1963,-0.4285,14.86,47.25,-11.75,60.28,64.26,78.83,134903,2016-04-11 18:31:14:186
-2.5914,-19.4222,5.8795,-1.2424,-9.6461,-1.2571,-6.8205,-10.8739,2.8065,-0.5983,2.8088,-2.5848,5.42,49.58,3.97,346.36,72.34,107.63,135003,2016-04-11 18:31:14:286
-9.5121,-0.4151,5.5154,-0.9705,-9.6405,-1.5133,-2.3385,-9.3298,4.4353,-0.6664,-2.9558,-1.6277,-4.6,49.61,6.01,312.62,79.44,147.33,135103,2016-04-11 18:31:14:386
-1.211,-3.2476,-2.6933,-3.5739,-9.0297,-1.3648,-3.4066,9.16,3.3403,-0.5085,-1.7677,1.8055,-0.71,48.66,14.25,318.85,67.04,110.9,135203,2016-04-11 18:31:14:486
-18.0426,-18.992,-12.6707,-2.7054,-8.796,-3.3883,1.2134,4.4903,0.1485,-1.9516,3.2946,0.2311,5.2,48.12,14.38,330.72,63.76,141.39,135304,2016-04-11 18:31:14:587
0.8177,-15.1576,-2.7814,-3.1698,-8.2468,-4.2558,-1.3498,-10.8255,2.1002,-0.3511,-3.1082,1.2541,1.4,47.6,16.32,340.23,59.27,161.9,135404,2016-04-11 18:31:14:687
-2.6087,-10.7702,-8.0386,-4.1736,-8.392,-2.8855,0.0696,-4.6484,0.6973,1.353,-2.3887,0.9834,7.65,47.52,15.06,347.87,57.24,143.32,135503,2016-04-11 18:31:14:786
3.5373,1.4988,0.1484,-5.5637,-7.7788,-2.1693,9.9212,3.9348,-2.5072,-1.897,-2.2543,0.8089,17.12,45.43,8.2,354.44,57.82,112.8,135604,2016-04-11 18:31:14:887
