ACCELEROMETER X (m/s²),ACCELEROMETER Y (m/s²),ACCELEROMETER Z (m/s²),GRAVITY X (m/s²),GRAVITY Y (m/s²),GRAVITY Z (m/s²),LINEAR ACCELERATION X (m/s²),LINEAR ACCELERATION Y (m/s²),LINEAR ACCELERATION Z (m/s²),GYROSCOPE X (rad/s),GYROSCOPE Y (rad/s),GYROSCOPE Z (rad/s),MAGNETIC FIELD X (μT),MAGNETIC FIELD Y (μT),MAGNETIC FIELD Z (μT),ORIENTATION Z (azimuth °),ORIENTATION X (pitch °),ORIENTATION Y (roll °),Time since start in ms ,YYYY-MO-DD HH-MI-SS_SSS
6.7343,-11.8408,-0.3911,3.3734,-9.1748,0.7837,6.8237,-3.0371,-2.0701,-0.5326,-0.3342,-0.3701,6.76,29.89,12.74,16.61,71.28,-54.87,109004,2016-03-24 12:47:00:045
7.1018,-10.1673,7.3623,5.8719,-7.6696,-1.6936,0.4228,-2.1169,3.7601,-2.8032,0.1235,-1.96,5.67,28.99,16.96,43.6,51.45,-106.09,109103,2016-03-24 12:47:00:144
2.634,-5.0976,0.4846,7.025,-6.4394,-2.3138,-4.5504,-1.3296,1.8458,-1.0125,0.2493,-3.2445,1.72,27.88,18.17,43.51,41.04,-108.23,109204,2016-03-24 12:47:00:245
3.4692,-3.3808,-3.9477,7.1749,-5.1918,-4.2114,-6.9041,1.4683,2.2108,-0.3594,-1.8212,-1.0815,-2.55,21.52,23.76,60.47,31.97,-120.41,109304,2016-03-24 12:47:00:345
7.1223,-1.9447,-4.9923,6.8821,-5.1075,-4.7666,3.5481,0.9571,-1.4004,-0.0243,-1.3728,-0.3626,-0.98,22.64,24.13,57.99,31.97,-120.41,109404,2016-03-24 12:47:00:445
1.8365,-4.5107,-0.377,6.8144,-5.6852,-4.1729,-1.9863,-6.1703,-3.475,0.7381,0.6882,0.213,1.12,21.79,26.1,63.69,32.96,-124.73,109504,2016-03-24 12:47:00:545
8.8299,-9.8714,1.7496,6.6676,-6.4439,-3.1921,-7.3765,1.1259,3.9411,0.1039,1.6345,1.0462,0.6,24.01,24.36,61.73,41.08,-115.58,109603,2016-03-24 12:47:00:644
4.7082,-7.275,-1.9077,5.3423,-8.1588,-1.0315,1.8629,-0.7267,-0.2935,1.1352,1.0037,1.6184,-1.46,28.31,21.73,62.29,56.3,-100.93,109704,2016-03-24 12:47:00:745
2.5999,-8.293,0.094,4.6853,-8.6046,-0.423,0.5209,0.7788,-0.8142,0.8932,0.2238,1.3521,-0.98,29.72,19.25,57.46,61.33,-95.16,109804,2016-03-24 12:47:00:845
6.6469,-7.9445,-0.2138,3.5724,-9.0427,1.2798,0.6822,0.2975,-1.5473,1.1864,0.5617,1.0207,1.39,31.42,14.54,38.18,67.23,-70.29,109905,2016-03-24 12:47:00:946
5.8391,-12.3274,0.2664,2.5043,-9.2386,2.1325,3.2577,-2.6861,-1.5613,0.4626,0.2528,0.7935,3.59,34.23,12,16.85,70.4,-49.58,110003,2016-03-24 12:47:01:044
13.3855,-9.855,-0.2225,2.3765,-9.304,1.9897,6.7696,-3.9577,-1.4013,-0.2215,0.1531,0.3148,4.29,34.54,11.15,15.84,71.58,-50.06,110103,2016-03-24 12:47:01:144
1.1772,-14.8587,1.1081,4.2812,-8.8115,-0.446,0.195,-3.4942,1.904,-2.1404,-0.7549,-1.9219,0.03,30.32,19.45,49.54,70.15,-72.77,110204,2016-03-24 12:47:01:245
2.9452,-10.0853,-1.9411,5.6939,-7.8936,-1.2004,-1.9444,-4.3404,4.463,-1.4707,0.0171,-2.8986,-1.94,26.97,27.71,70.05,53.6,-101.9,110304,2016-03-24 12:47:01:345
0.6672,-5.2454,0.4408,7.4903,-5.7336,-2.6819,-4.2332,0.1613,3.328,0.0392,-1.9151,-1.811,7.69,26.15,38.64,65.68,35.78,-109.7,110403,2016-03-24 12:47:01:444
6.5586,-4.2359,-6.2758,7.3757,-5.4055,-3.5427,-6.8666,0.2733,3.5126,0.4158,-1.9627,-0.6155,11.98,27.04,34.83,61.28,33.45,-115.66,110504,2016-03-24 12:47:01:545
9.3706,-16.8237,-11.9689,7.0709,-5.7511,-3.619,3.6133,2.1757,-1.7742,0.8298,0.6138,-0.1207,15.7,24.72,27.65,56.75,35.91,-117.1,110604,2016-03-24 12:47:01:645
-0.1517,-12.5782,3.6329,7.0285,-6.3213,-2.61,-11.9955,0.6998,4.2455,0.2521,2.2167,1.4482,14.33,25.42,26.08,53.38,40.13,-110.37,110703,2016-03-24 12:47:01:744
5.6919,-6.1762,-1.5358,5.5577,-8.0789,-0.1137,0.0874,-0.2314,-0.8349,0.9228,1.6181,2.1082,12.17,25.39,26.62,53.09,47.72,-101.22,110805,2016-03-24 12:47:01:846
6.6133,-6.8445,2.3731,4.6152,-8.6362,0.5354,1.5096,1.3091,-1.0761,0.2606,0.9396,1.382,13.02,26.23,25.67,42.74,61.72,-83.38,110904,2016-03-24 12:47:01:945
7.1311,-8.3829,0.2802,3.4451,-8.9361,2.1087,-3.3147,-2.2025,-3.901,0.5178,0.8447,1.2214,13.42,26.93,25.28,23.7,65.68,-58.53,111003,2016-03-24 12:47:02:044
5.0784,-11.2034,-0.674,2.8236,-9.0565,2.4855,4.1918,0.3439,-2.6788,0.5178,0.8447,1.2214,13.42,26.93,25.28,23.7,65.68,-58.53,111104,2016-03-24 12:47:02:145
6.45,-10.0997,-1.4934,2.6257,-9.1867,2.2091,4.1008,-3.8982,-1.6859,-0.1052,0.2174,0.3535,17.02,27.5,23.15,10.52,69.52,-49.93,111205,2016-03-24 12:47:02:246
2.2465,-13.8017,1.1212,3.5555,-9.0884,0.9647,3.6855,-2.6775,-2.3405,-2.4646,-0.5056,-2.1729,17.56,26.31,28.84,35.27,67.93,-74.82,111304,2016-03-24 12:47:02:345
3.1348,-7.9192,-2.2403,5.8187,-7.8463,-0.8655,-2.9569,-4.6739,1.7557,-1.8186,0.5439,-1.969,17.41,22.68,31.32,54.56,53.14,-98.46,111403,2016-03-24 12:47:02:444
1.6677,-5.9433,-0.428,7.2977,-6.1306,-2.3086,-5.6291,0.0911,1.6516,-0.7304,-1.0173,-1.8478,13.27,21.76,30.18,58.09,44.79,-102.47,111504,2016-03-24 12:47:02:545
8.8838,-4.7309,-4.6305,7.4001,-5.6595,-3.0624,-4.2673,1.1894,0.9211,-0.5581,-1.2118,-1.064,10.18,20.4,27.35,61.37,35.25,-112.48,111604,2016-03-24 12:47:02:645
7.0365,-3.0421,-6.2791,7.1914,-5.5566,-3.6847,0.319,2.7386,-1.8785,0.435,-0.7217,-0.0614,8.91,19.66,26.19,62.3,34.51,-117.13,111704,2016-03-24 12:47:02:745
13.3531,-13.493,-0.1307,6.9986,-5.9366,-3.4566,-0.1093,-3.9624,-3.0224,0.5332,0.1031,0.4587,8.57,19.61,26.7,64.3,37.25,-116.28,111804,2016-03-24 12:47:02:845
8.8851,-8.0861,-1.4337,6.2048,-7.4701,-1.3671,-1.1479,-2.2157,3.4651,0.8541,2.0316,1.6264,4.65,19.98,27,67.59,42.68,-111.63,111904,2016-03-24 12:47:02:945
3.786,-8.0518,-0.5382,5.5304,-8.0858,-0.453,0.6018,0.9066,-1.3493,1.0656,1.215,1.4124,2.14,21.2,26.53,68.29,49.62,-102.43,112003,2016-03-24 12:47:03:044
4.3857,-7.59,2.6086,4.2334,-8.8188,0.6913,1.909,0.1135,-1.5006,0.8776,0.2429,0.8873,2.46,23.63,27.61,59.12,64.06,-80.73,112104,2016-03-24 12:47:03:145
4.239,-8.9008,-2.3472,3.7911,-8.918,1.5055,0.6406,1.0066,0.6199,1.4336,-0.1499,0.8136,3,24.95,27.27,47.48,65.42,-68.34,112203,2016-03-24 12:47:03:244
5.865,-9.6356,1.5633,2.703,-9.0493,2.6409,2.0448,-1.0944,-0.9802,0.5953,0.5867,0.7751,5.55,30.88,26.8,24.41,67.33,-45.66,112303,2016-03-24 12:47:03:344
8.8937,-12.5654,0.6655,2.3327,-9.1176,2.7564,4.5119,-3.4642,-2.5132,0.0813,0.5742,0.5189,6.58,33.12,27.52,19.38,68.39,-40.24,112404,2016-03-24 12:47:03:445
6.1824,-10.8937,-0.7254,3.3812,-9.1275,1.194,4.983,-0.4657,-2.5118,-1.7444,-0.8199,-1.5892,9.19,33.82,31.36,41.23,68.55,-70.55,112505,2016-03-24 12:47:03:546
4.4146,-9.0985,-3.4298,5.6878,-7.9107,-1.114,-2.2835,-3.934,4.761,-1.6657,0.4537,-2.7093,10.27,28.41,37.37,63.9,53.77,-101.08,112604,2016-03-24 12:47:03:645
2.6956,-5.2983,-0.0303,6.9005,-6.7309,-1.8024,-2.7816,-2.2213,-0.6662,-1.0304,-0.8734,-2.4595,5.82,24.76,40.48,71.75,53.77,-101.08,112704,2016-03-24 12:47:03:745
1.0887,-3.5085,-2.4291,7.3976,-5.4211,-3.4723,-7.3515,1.5365,2.5151,-0.0166,-1.5286,-0.835,8.64,20.48,40.66,74.26,33.56,-115.14,112804,2016-03-24 12:47:03:845
7.0415,-2.5502,-2.9851,7.2045,-5.4016,-3.8845,0.1853,1.8304,-0.516,0.7077,-0.8857,0.1967,13.03,19.94,41.47,73.8,33.42,-118.33,112904,2016-03-24 12:47:03:945
9.7996,-16.5817,-10.3842,7.2204,-6.2672,-2.1814,0.02,-4.8871,-3.9916,0.5073,2.1709,0.4987,13.53,27.55,35.74,61.41,36.41,-115.08,113003,2016-03-24 12:47:04:044
8.0423,-10.3102,2.4804,6.6244,-7.1724,-0.9193,-7.8992,-1.031,2.1612,0.7759,2.1295,2.6139,10.09,29.43,32.97,57.08,39.72,-106.81,113105,2016-03-24 12:47:04:146
5.7498,-7.0682,-3.6399,4.7903,-8.4854,1.1048,1.0295,0.7638,-3.815,1.2745,1.7861,1.5561,10.67,31.37,32.62,48.62,55.19,-86.41,113204,2016-03-24 12:47:04:245
2.6728,-9.2896,0.1602,4.2393,-8.7037,1.5632,0.7532,1.636,-0.9651,0.2895,0.6746,1.2302,10.36,31.43,27.93,36.16,62.57,-69.76,113304,2016-03-24 12:47:04:345
5.2121,-8.4187,1.221,2.8958,-8.8758,3.0009,0.3949,0.1117,-3.836,1.5011,0.2384,1.3302,10.22,34.49,23.72,14.59,64.83,-43.98,113404,2016-03-24 12:47:04:445
6.3022,-14.187,-1.0497,2.3694,-8.8673,3.4537,3.641,-0.4502,-2.4012,0.7273,0.5102,0.8851,10.91,36.87,18.01,1.83,64.72,-34.45,113508,2016-03-24 12:47:04:549
7.2017,-9.4572,-0.6134,2.682,-9.1103,2.4451,7.7065,-3.1351,-2.1263,-0.968,-0.0204,-0.0857,12.57,36.15,13.57,2.93,68.28,-47.65,113603,2016-03-24 12:47:04:644
1.4427,-14.7567,0.9507,3.8792,-8.9632,0.8855,3.945,-1.3004,-2.7429,-2.0244,-1.2446,-1.6074,12.43,35.37,13.99,4.32,68.28,-47.65,113703,2016-03-24 12:47:04:744
3.2225,-6.8995,0.1962,6.4014,-7.3112,-1.3184,-2.837,-2.0393,-0.8557,-1.3461,-0.7477,-2.6657,3.29,31.88,20.05,44.56,48.21,-101.64,113805,2016-03-24 12:47:04:846
-0.6314,-4.2982,-0.3281,7.0781,-6.3679,-2.3498,-4.6312,0.3805,2.4439,-0.7944,-1.4341,-2.1065,-1.8,27.45,22.86,55.45,40.49,-108.37,113904,2016-03-24 12:47:04:945
7.2285,-2.572,-5.2397,7.0625,-5.4598,-4.0597,0.4022,1.299,-1.1315,-0.0231,-1.5589,-0.6379,-3.36,20.78,28.56,71.81,36.02,-114.75,114004,2016-03-24 12:47:05:045
4.5234,-1.9755,0.4537,6.5554,-6.2859,-3.6994,0.1152,4.5693,1.9969,1.3606,0.0261,0.8114,1.2,19.36,32.36,77.04,34.53,-122.74,114103,2016-03-24 12:47:05:144
0.8236,-10.0149,1.5776,6.2077,-7.0901,-2.7139,-1.1831,-6.2918,-5.2639,0.9931,1.5831,1.3672,2.62,20.41,32.86,77.62,39.87,-119.44,114203,2016-03-24 12:47:05:244
6.3884,-7.9812,-1.3805,5.6771,-7.8301,-1.6216,-7.9753,0.6597,2.4983,0.5457,2.0653,1.4787,1.73,22,33.2,77.35,46.3,-113.61,114306,2016-03-24 12:47:05:347
6.2228,-5.9534,1.221,3.9171,-8.9887,0.1751,1.6286,1.3743,-2.7409,0.6644,0.985,1.6228,-0.7,26.41,33.78,72.27,66.43,-87.44,114404,2016-03-24 12:47:05:445
3.0118,-8.2479,-1.2838,2.8162,-9.2287,1.7524,0.1069,0.4443,-0.9066,1.4354,0.273,1.0296,2.47,32.36,33.69,43.48,70.23,-58.11,114504,2016-03-24 12:47:05:545
4.9478,-9.5787,1.0734,2.1829,-9.2483,2.4235,3.7384,0.3666,-1.6263,0.9984,0.4414,0.96,4.59,35.99,32.11,37.4,70.23,-58.11,114604,2016-03-24 12:47:05:645
10.1255,-11.2769,-1.852,1.4617,-9.2651,2.8622,6.6325,-4.1409,-2.1062,-0.058,0.1932,0.3703,13.48,43.22,29.64,5.32,70.3,-30.8,114704,2016-03-24 12:47:05:745
6.9658,-9.2454,-0.8568,2.0455,-9.3805,1.9982,7.3177,-1.8916,-4.9021,-1.5224,-0.887,-0.9944,15.89,44.93,24.69,9.33,73.05,-45.67,114803,2016-03-24 12:47:05:844
1.2252,-13.785,3.8427,4.7712,-8.5389,-0.7025,-2.9985,-5.9607,2.3247,-1.4737,-0.5375,-2.7421,2.41,42.38,25.96,53.74,60.54,-98.38,114906,2016-03-24 12:47:05:947
1.1204,-5.2084,0.219,6.0463,-7.559,-1.573,1.0356,-2.4728,1.8708,-1.0268,-1.1882,-2.4694,-2.7,33.25,31.84,67.4,50.43,-104.58,115003,2016-03-24 12:47:06:044
2.5348,-2.8309,-3.0207,6.8394,-6.0436,-3.5871,-6.7404,1.8063,3.4806,-0.2254,-1.8695,-0.8401,5.61,12.34,46.13,90.58,38.05,-117.68,115104,2016-03-24 12:47:06:145
9.1168,-2.5777,-7.299,6.6637,-5.7613,-4.3096,-3.1798,2.5776,1.2662,0.1805,-1.3885,-0.5565,13.3,9.02,48.02,91.96,35.98,-122.89,115204,2016-03-24 12:47:06:245
-6.6528,1.122,-1.4715,6.2727,-6.0538,-4.4916,4.4924,2.1531,-4.5915,0.442,0.1443,1.1196,32.53,16.39,49.16,78.94,38.12,-125.6,115304,2016-03-24 12:47:06:345
6.2107,-7.1279,-2.1627,5.4782,-7.8605,-2.0909,1.5725,-0.3155,-0.187,0.8519,3.2827,2.0426,37.39,20.87,42.97,68.19,45.06,-119.99,115404,2016-03-24 12:47:06:445
2.5225,-8.1005,0.1004,4.4639,-8.6675,-1.0578,-1.6503,0.8533,0.5012,1.0742,1.7735,1.9514,36.86,24.72,45.07,61.66,53.28,-110.89,115504,2016-03-24 12:47:06:545
4.1541,-5.7467,1.262,2.7153,-9.4068,0.5559,4.8934,3.4785,-0.5769,0.8465,0.9173,1.6752,37.54,22.3,41.51,33.84,73.58,-78.43,115603,2016-03-24 12:47:06:644
3.9913,-8.6739,-0.9762,2.0309,-9.4861,1.4353,-1.9773,-0.2975,-2.0915,1.68,0.1319,0.6349,37.28,22,37.72,9.8,75.31,-54.75,115704,2016-03-24 12:47:06:745
6.6373,-13.8983,-0.648,0.8945,-9.4615,2.4187,4.3438,-1.5598,-1.0265,0.8533,-0.0956,0.8732,36.21,24.64,21.25,324.86,74.75,-20.3,115804,2016-03-24 12:47:06:845
9.4663,-11.7581,-1.7844,0.933,-9.526,2.1345,7.0182,-5.3249,-2.1342,-0.0606,0.4098,0.3499,34.24,23.36,12.26,318.11,76.26,-23.61,115904,2016-03-24 12:47:06:945
3.0463,-15.3678,-0.805,3.1748,-9.2752,-0.2487,4.3412,0.2121,-0.9093,-2.0022,-0.757,-2.055,18.33,20.73,3.91,12.93,71.05,-94.48,116004,2016-03-24 12:47:07:045
0.7314,-7.9758,-0.9354,4.5946,-8.5843,-1.1704,-2.3338,-6.5902,3.0562,-1.8158,-0.227,-2.371,7.53,19.92,6.46,25.92,71.05,-94.48,116103,2016-03-24 12:47:07:144
1.6198,-4.3903,0.4694,6.2833,-6.951,-2.8938,-4.4543,2.2735,3.0912,-0.5599,-1.6047,-1.6887,0.5,12.69,17.78,75.05,45.14,-114.73,116204,2016-03-24 12:47:07:245
10.3067,-4.75,-5.9254,6.3078,-6.54,-3.6894,-4.008,2.1351,1.0307,-0.0864,-1.8013,-1.0513,4.14,10.75,20.86,80.34,41.83,-120.32,116304,2016-03-24 12:47:07:345
5.075,-3.7064,-3.5428,6.0901,-6.7063,-3.7558,2.2763,5.0897,1.7289,0.9721,-0.1684,0.0921,8.17,11.6,20.45,73.63,43.15,-121.66,116404,2016-03-24 12:47:07:445
-4.2608,-4.7943,1.1754,6.0899,-7.0666,-3.0243,-1.5482,-5.6135,-6.1305,0.6783,1.2827,0.4237,6.84,13.62,19.5,68,46.1,-116.41,116504,2016-03-24 12:47:07:545
4.3475,-8.0665,-1.2404,4.6715,-8.5959,-0.6765,3.3456,-1.6845,1.114,1.173,1.9707,2.1186,2.75,16.3,18.74,69.63,52.52,-109.2,116604,2016-03-24 12:47:07:645
6.4715,-6.2893,0.5398,2.8296,-9.3493,0.8682,2.8711,2.3405,-1.6503,0.8479,1.4705,1.9376,2.14,18.59,17.98,64.54,61.23,-98.24,116704,2016-03-24 12:47:07:745
4.7365,-8.6833,0.1958,2.1218,-9.4266,1.6759,1.9932,1.5385,1.7103,1.1185,0.3685,1.3149,2.37,22.55,15.25,32.1,74,-51.7,116805,2016-03-24 12:47:07:846
6.0501,-11.3636,-0.1143,1.2181,-9.4983,2.1137,-0.764,-0.9701,-4.8692,0.6826,0.65,1.1676,3.13,24.97,13.25,26.27,74,-51.7,116905,2016-03-24 12:47:07:946
8.5598,-11.1141,-1.987,0.8274,-9.5586,2.0296,8.3215,-3.6686,-2.0262,-0.6752,-0.1088,-0.1969,5.26,28.14,12.36,359.7,77.09,-22.18,117003,2016-03-24 12:47:08:044
0.8789,-14.4194,-0.0353,3.0186,-9.3158,-0.524,0.3576,-4.9146,0.0378,-2.435,0.2913,-2.2143,0.16,25.36,16.45,71.71,71.79,-99.85,117103,2016-03-24 12:47:08:144
2.4009,-8.7086,-1.0093,4.6114,-8.5168,-1.5391,-0.7085,-2.2696,3.3219,-1.5389,-0.3919,-3.1133,-2.61,23.18,19.5,77.75,60.28,-108.46,117204,2016-03-24 12:47:08:245
-0.4342,-3.9676,-0.4101,6.3804,-6.6949,-3.2619,-4.5108,1.1889,2.7556,-0.5044,-1.6242,-1.4905,-5.97,16.92,22.82,84.76,43.05,-117.08,117304,2016-03-24 12:47:08:345
9.6525,-5.2664,-5.5819,6.4454,-6.1385,-4.1166,-6.3004,2.0725,2.9176,-0.221,-1.6068,-0.9737,-3.51,15.49,26.05,87.6,38.75,-122.57,117403,2016-03-24 12:47:08:444
7.9487,-2.2989,-5.6456,6.1701,-5.9665,-4.7435,2.0825,3.1894,-0.4928,0.4614,-1.4588,-0.1934,-3.83,15.56,26.1,85.6,37.08,-126.95,117504,2016-03-24 12:47:08:545
-2.9068,-8.0115,3.6146,6.2003,-6.2645,-4.2991,0.9123,-3.3187,-2.4803,0.7798,0.126,-0.2178,-1.8,15.59,27.1,85.13,37.47,-127.55,117604,2016-03-24 12:47:08:645
5.0543,-6.7019,-1.9012,5.3144,-8.022,-1.8907,1.501,0.236,0.5862,0.9825,3.1312,2.2703,-4.09,18.41,24.62,88.93,54.89,-109.58,117704,2016-03-24 12:47:08:745
7.806,-6.3571,-0.1686,4.4649,-8.6672,-1.0561,-0.3948,0.9299,0.4339,0.9921,1.4726,1.8708,-5.02,22.61,20.33,82.56,62.11,-103.31,117804,2016-03-24 12:47:08:845
-0.7981,-10.5807,-2.3623,3.2747,-9.2431,0.1123,0.8337,0.7556,0.3698,0.8976,-0.1024,0.9897,-4.48,27.16,15.81,70.31,70.48,-88.04,117905,2016-03-24 12:47:08:946
3.7755,-9.2567,1.4065,2.0129,-9.4847,1.4691,4.621,1.5249,-0.803,0.9299,0.3633,1.2338,-2.25,29.9,10.88,39.22,75.28,-53.88,118004,2016-03-24 12:47:09:045
6.1764,-13.2634,0.8536,1.5512,-9.5217,1.7609,1.4916,-1.759,-0.4769,0.6703,0.0374,0.7274,-2.11,31.35,9.63,31.15,76.15,-41.38,118104,2016-03-24 12:47:09:145
8.0704,-12.4088,-2.5368,1.4802,-9.5635,1.5873,5.6365,-4.0766,-0.4624,-0.1584,0.4239,0.4381,0.14,32.35,7.75,21.41,76.15,-41.38,118204,2016-03-24 12:47:09:245
2.2773,-14.0896,2.0468,3.4034,-9.1566,-0.8628,2.8103,-0.6534,-1.0801,-2.1751,-0.7649,-1.8894,-0.01,31.68,10.23,46.61,69.02,-104.23,118304,2016-03-24 12:47:09:345
1.4572,-5.9087,0.1505,6.1547,-7.2323,-2.4462,-1.0615,-3.474,3.3032,-0.9489,-0.5647,-2.778,-5.31,26.69,15.81,66.64,57.8,-110.21,118404,2016-03-24 12:47:09:445
0.7725,-4.1917,-1.0717,6.7442,-6.3249,-3.2682,-5.0061,0.5784,2.9926,-0.4998,-1.4229,-2.0576,-8.37,23.97,17.97,55.81,40.16,-115.85,118504,2016-03-24 12:47:09:545
8.1401,-1.7657,-3.8403,6.6463,-5.3163,-4.8716,0.7901,0.8544,0.708,-0.0446,-1.6659,-0.7701,-6.92,16.93,21.76,76.05,35.45,-121.11,118604,2016-03-24 12:47:09:645
7.6277,-3.0388,-4.4325,6.4485,-5.28,-5.1681,0.7663,3.4689,1.4214,0.6458,-1.1451,-0.4076,-5.14,16.79,22.98,73.13,32.83,-126.24,118704,2016-03-24 12:47:09:745
-1.2195,0.7962,0.2582,5.9872,-6.2623,-4.5943,-1.7248,-2.4494,-3.5115,0.5472,1.0474,1.1108,-3.6,18.26,22.52,73.51,35.21,-129.38,118804,2016-03-24 12:47:09:845
6.5639,-6.0313,-1.3262,5.8999,-7.1001,-3.309,-5.2629,-0.8327,4.1211,0.7862,2.605,1.5756,-3.3,23.44,18.96,74.7,53.99,-110.28,118909,2016-03-24 12:47:09:950
0.4894,-8.0217,-0.4496,4.51,-8.6339,-1.1336,-1.7915,1.4774,-0.1863,0.8101,1.2823,1.9037,-5.65,25.84,15.11,73.05,61.69,-104.11,119004,2016-03-24 12:47:10:045
6.1474,-6.2136,0.6384,3.5688,-9.1206,-0.4988,1.2752,0.3207,0.1611,0.8176,0.5418,1.6124,-3.76,28.17,13.39,68.19,68.44,-97.96,119104,2016-03-24 12:47:10:145
2.6335,-8.1804,-0.2851,2.4166,-9.4512,1.0026,-0.2071,0.0895,-1.8783,0.7953,0.7591,0.929,-0.57,30.61,9.89,40.98,74.53,-67.47,119203,2016-03-24 12:47:10:244
4.1046,-11.5418,1.0726,1.8158,-9.5073,1.5762,3.525,1.0893,0.1445,1.0029,0.0392,1.0365,0.98,29.85,9.67,35.12,74.53,-67.47,119308,2016-03-24 12:47:10:349
8.2725,-11.6929,-0.7163,1.2564,-9.5676,1.7474,7.1128,-4.9917,-1.547,-0.6488,-0.0442,-0.1927,4.97,30.99,7.06,358.87,76.21,-33.46,119404,2016-03-24 12:47:10:445
4.4692,-10.8929,-0.5975,3.3131,-9.2155,-0.518,1.4647,-1.888,0.1351,-2.2338,-0.212,-2.4559,1.78,30.31,11.29,36.58,77.05,-67.38,119504,2016-03-24 12:47:10:545
6.2585,-9.3973,4.3089,4.8586,-8.3757,-1.5532,-2.2544,-4.3762,4.38,-1.2761,-0.8088,-3.2141,-0.21,28.06,14.18,50.68,58.66,-107.73,119605,2016-03-24 12:47:10:646
2.543,-5.8293,-0.3084,6.052,-7.284,-2.547,-1.9778,-1.9117,2.1259,-1.2761,-0.8088,-3.2141,-0.21,28.06,14.18,50.68,58.66,-107.73,119706,2016-03-24 12:47:10:747
2.2413,-3.3733,-2.3421,6.5403,-5.6573,-4.6248,-5.5177,0.6768,4.121,-0.808,-1.7466,-1.5911,-5.66,20.46,20.01,68.8,40.14,-119.02,119804,2016-03-24 12:47:10:845
9.4752,-0.9851,-2.5389,6.1717,-5.196,-5.5751,1.0055,2.5542,-0.5892,-0.0563,-1.1434,-0.4574,-1.22,16.4,24.05,74.83,32.36,-130.43,119904,2016-03-24 12:47:10:945
-4.775,-11.3129,-7.7853,6.102,-5.6458,-5.2021,5.0665,3.7946,3.1705,0.8834,-0.1913,0.0162,-0.86,16.53,24.91,77.35,35.15,-130.45,120004,2016-03-24 12:47:11:045
7.293,-7.5573,-0.218,5.4264,-7.638,-2.8958,2.4034,-1.2981,2.4134,0.7452,2.8721,2.2395,-0.35,19.92,21.63,77.01,51.16,-118.09,120103,2016-03-24 12:47:11:144
4.6147,-7.7386,-0.137,4.638,-8.4336,-1.8798,0.097,1.0764,2.0703,1.0325,1.512,1.9326,-1.07,22.54,19.16,67.43,51.16,-118.09,120203,2016-03-24 12:47:11:244
1.2236,-9.1947,-0.093,3.1499,-9.2848,-0.2024,0.8143,1.4622,1.2233,1.1141,0.4803,1.2403,1.93,25.37,14.3,57.2,71.22,-93.68,120304,2016-03-24 12:47:11:345
5.0141,-8.4996,0.667,2.4846,-9.4698,0.5654,-0.2899,0.3151,-2.1001,1.3682,0.4321,1.0364,2.99,26.93,11.43,45.81,71.22,-93.68,120404,2016-03-24 12:47:11:445
6.1109,-13.7753,0.6269,1.3965,-9.6108,1.361,3.6079,-0.9782,0.091,0.5534,0.0923,0.8632,7.35,26.03,8.62,5.49,78.53,-45.74,120504,2016-03-24 12:47:11:545
8.0243,-12.6723,-0.4534,1.4014,-9.6236,1.2618,6.0065,-4.5548,-0.465,-0.0858,0.1019,0.2239,8.3,25.71,7.62,0.51,78.53,-45.74,120604,2016-03-24 12:47:11:645
1.2531,-15.097,0.3735,3.4259,-9.1209,-1.1151,2.8822,-0.8178,-0.2063,-2.2355,-0.6587,-2.0667,8.76,23.71,6.98,19.61,77.09,-80.38,120704,2016-03-24 12:47:11:745
2.4216,-9.4142,-2.0411,4.9921,-8.1707,-2.1187,-2.4726,-5.8196,2.0717,-1.8041,-0.2365,-2.9446,5.6,21.07,8.52,38.66,56.43,-113,120804,2016-03-24 12:47:11:845
0.1447,-4.3964,0.1684,6.6835,-6.0011,-3.9356,-4.4876,0.5598,3.6686,-0.8113,-1.591,-1.92,1.1,15.78,11.16,45.64,37.73,-120.49,120904,2016-03-24 12:47:11:945
6.5654,-0.2109,-4.8672,6.1959,-4.9739,-5.7482,2.1647,1.689,0.6886,-0.0071,-1.7684,-0.4557,2.76,13.06,14.84,61.27,30.48,-132.85,121007,2016-03-24 12:47:12:048
-0.8404,-11.3128,-12.5926,6.1058,-5.2011,-5.6426,1.4048,4.826,1.8142,1.0298,-0.0238,-0.0054,3.34,14.21,15.41,59.66,32.03,-132.74,121103,2016-03-24 12:47:12:144
-4.3397,-5.8109,1.0976,6.2047,-6.6702,-3.6305,-8.4677,2.4762,1.6647,0.7255,2.4388,2.2324,2.04,16.55,12.69,48.86,35.91,-126.84,121204,2016-03-24 12:47:12:245
3.5613,-6.3116,-0.1968,5.4467,-7.8154,-2.3288,2.229,-4.9979,2.748,1.1265,1.7618,2.1896,2.28,18.52,11.35,48.94,52.84,-113.15,121304,2016-03-24 12:47:12:345
5.8898,-5.873,-0.375,3.741,-9.0417,-0.6497,2.1758,0.5867,-0.7433,0.8015,0.4174,1.3664,4.5,20.48,6.04,30.83,67.22,-99.85,121404,2016-03-24 12:47:12:445
1.4644,-9.3531,-2.311,3.0658,-9.3148,0.0768,2.383,2.5026,0.8307,1.2584,0.4442,1.1896,5.3,19.22,5.72,28.47,71.78,-88.56,121504,2016-03-24 12:47:12:545
5.9814,-12.5791,-0.636,1.7484,-9.5641,1.281,5.3271,-1.3296,-0.943,1.0497,-0.266,0.9573,7.21,19.22,3.21,3.41,75.58,-72.22,121604,2016-03-24 12:47:12:645
10.1073,-12.2766,-1.083,1.4493,-9.6,1.3823,5.8177,-5.9411,-1.5115,-0.5422,0.3849,0.3031,7.92,17.86,2.28,339.15,78.22,-46.36,121704,2016-03-24 12:47:12:745
1.7713,-15.8789,0.4245,3.3897,-9.1669,-0.8057,1.7808,-1.7391,0.3736,-1.7478,-0.873,-1.7016,7.62,16.11,0.25,348.98,77.57,-74.51,121804,2016-03-24 12:47:12:845
2.3536,-10.1497,-2.3941,4.9312,-8.2619,-1.896,-3.3974,-6.178,3.8599,-2.2768,-0.6021,-2.7637,2.43,15.39,-1.12,356.04,69.19,-103.37,121903,2016-03-24 12:47:12:944
0.5484,-4.6769,-0.022,6.8051,-6.0779,-3.5944,-3.9569,0.229,2.8722,-0.9017,-1.0743,-2.3625,-6.11,12.1,1.31,341.82,38.3,-117.84,122004,2016-03-24 12:47:13:045
8.1245,-4.2034,-3.8508,6.8264,-5.3306,-4.5995,-6.0546,0.5692,4.0274,-0.4952,-1.8204,-1.8687,-8.43,6.96,5.2,336.68,32.93,-123.97,122103,2016-03-24 12:47:13:144
5.1456,-6.5701,-6.1194,6.1129,-5.1345,-5.6956,2.6655,2.3684,0.2678,0.3588,-1.5237,-0.2987,-2.89,2.3,16.73,117.94,31.57,-132.98,122203,2016-03-24 12:47:13:244
-3.1286,-3.8917,3.6072,5.9671,-5.6371,-5.3653,1.9858,1.8762,0.9308,0.7835,-0.3524,0.5061,0.03,3.95,19.25,105.92,35.09,-131.96,122304,2016-03-24 12:47:13:345
3.7142,-6.8547,-0.5727,5.5492,-7.5983,-2.7643,2.6019,-1.5873,2.2376,0.92,3.1299,2.2457,1.71,7.35,19.76,94.78,42.1,-125.31,122404,2016-03-24 12:47:13:445
6.6648,-5.6788,-2.0742,4.724,-8.4292,-1.6742,-0.1761,0.7359,1.866,0.9814,1.8211,2.0364,1.46,10.7,18.98,86.94,59.26,-109.51,122504,2016-03-24 12:47:13:545
-1.2009,-11.1074,-3.4622,3.1485,-9.2857,-0.1788,-0.3441,0.1438,2.5822,1.1709,0.0233,1.2837,1.64,15.3,15.25,73.63,65.61,-105.05,122604,2016-03-24 12:47:13:645
8.3746,-8.2883,1.0048,1.6224,-9.5978,1.1921,6.1999,0.7297,-0.6587,0.7432,0.3076,1.239,2.16,16.93,12.98,36.41,78.15,-53.69,122704,2016-03-24 12:47:13:745
8.7783,-12.0769,-1.4008,1.3153,-9.6477,1.1669,4.7837,-3.6593,-1.5518,0.0865,-0.0481,0.6426,3.05,19.24,12.08,30.84,78.15,-53.69,122804,2016-03-24 12:47:13:845
6.4506,-8.8661,-1.2032,3.3197,-9.1692,-1.0369,5.1969,0.3423,-0.2261,-1.9774,-1.1152,-2.4596,4.01,18.28,12.58,50.73,79.07,-78.64,122904,2016-03-24 12:47:13:945
2.6051,-13.1577,-1.3446,4.9497,-8.1425,-2.3174,-1.7051,-8.2469,1.9561,-2.2035,-0.3686,-3.0877,2.85,16.6,15.01,66.53,56.13,-115.09,123004,2016-03-24 12:47:14:045
1.7973,-4.2356,-0.0747,6.6248,-6.0111,-4.0186,-5.1647,-1.3975,2.8848,-0.6774,-1.601,-1.9351,-2.56,11.16,17.35,82.47,37.8,-121.24,123103,2016-03-24 12:47:14:144
6.2065,-3.7334,-4.1883,6.4537,-5.4768,-4.9523,-5.5907,2.1751,3.7961,-0.1391,-1.9803,-1.0154,-2.83,9.01,17.52,89.92,33.95,-127.5,123205,2016-03-24 12:47:14:246
6.2342,-2.9346,-6.3443,5.5459,-5.1856,-6.2067,1.1468,1.8859,-0.1591,0.8183,-1.5009,-0.1008,2.4,7.02,23.05,98.2,31.92,-138.22,123304,2016-03-24 12:47:14:345
3.367,-4.9589,-2.4867,5.2753,-5.8284,-5.8627,-1.6576,-0.5942,0.3677,1.1521,0.2991,0.6297,4.68,9.39,24.08,93.99,36.46,-138.02,123405,2016-03-24 12:47:14:446
1.6506,-11.4766,0.7794,5.1555,-7.4688,-3.7159,-4.5366,-3.137,4.0418,1.067,2.1019,1.7246,4.06,14.24,25.26,87.26,42.11,-132.61,123504,2016-03-24 12:47:14:545
5.7326,-8.5166,-0.1015,4.4155,-8.3724,-2.5646,0.7508,-1.374,2.3544,1.1142,1.6837,2.3531,4.14,17.49,25.26,84.06,49.61,-125.78,123604,2016-03-24 12:47:14:645
-0.3606,-9.6507,1.5546,2.6921,-9.4123,-0.576,4.7111,2.9308,-0.1326,1.948,0.2828,0.8506,5.23,22.9,22.18,79.49,67.69,-115.67,123704,2016-03-24 12:47:14:745
6.9611,-7.9898,-0.057,1.207,-9.6771,1.0327,2.1309,0.5724,-2.3314,0.858,0.1844,0.8812,7.07,27.42,17.52,44.6,78.2,-76.94,123803,2016-03-24 12:47:14:844
7.4587,-14.9014,0.5359,0.7764,-9.6712,1.4269,5.3899,1.2386,0.0523,0.3124,0.9461,0.6538,8.62,29.02,14.94,358.09,80.47,-28.55,123903,2016-03-24 12:47:14:944
8.8411,-10.9458,-1.237,1.7549,-9.6422,0.3444,6.4116,-0.8151,-1.6152,-0.6422,-0.1394,-0.4922,10.37,30.39,13.59,357.18,80.92,-31.98,124004,2016-03-24 12:47:15:045
5.7437,-12.9453,5.2962,2.9885,-9.2604,-1.2186,-0.1586,-5.9184,0.9458,-2.1223,-1.306,-2.0938,11.09,29.89,14.49,49.73,70.79,-112.18,124104,2016-03-24 12:47:15:145
2.391,-6.4342,-1.2883,5.7179,-7.2616,-3.2782,-3.2308,-0.3106,1.2744,-1.4067,-0.492,-3.1508,4.36,26.78,19.42,53.4,47.77,-119.83,124204,2016-03-24 12:47:15:245
0.8041,-2.4789,-1.3362,6.0133,-6.3676,-4.4118,-4.2596,1.4838,4.4107,-1.0749,-1.6991,-2.0094,-1.16,23.51,19.75,57.11,40.49,-126.27,124304,2016-03-24 12:47:15:345
8.9385,-1.3959,-6.1907,5.4332,-5.5564,-5.9814,2.1077,2.7261,1.159,-0.0491,-1.8944,-0.8609,-1.41,19.15,25,73.4,34.51,-137.75,124404,2016-03-24 12:47:15:445
4.1252,-10.6967,-4.2805,5.3295,-5.8774,-5.7639,2.8149,4.83,1.5505,0.962,-1.1011,-0.0907,-0.24,19.19,24.92,76.07,36.82,-137.24,124504,2016-03-24 12:47:15:545
6.3221,-13.9092,1.0895,5.4133,-7.2505,-3.7812,-9.3076,2.1892,2.1093,0.5879,2.4113,1.4361,-1.43,20.43,22.91,80.31,47.68,-124.93,124604,2016-03-24 12:47:15:645
3.8927,-6.8701,-0.2356,4.8217,-8.1762,-2.4639,2.4615,-5.1739,3.6649,1.0052,2.4892,2.0532,-2.75,21.87,21.04,83.57,56.49,-117.07,124703,2016-03-24 12:47:15:744
5.593,-6.2927,-0.3473,3.1198,-9.2618,-0.8102,3.3099,2.1545,0.0789,0.8681,0.8657,1.5831,-2.57,25.97,14.76,80.75,70.81,-104.56,124805,2016-03-24 12:47:15:846
4.047,-8.9199,0.0726,2.4804,-9.4877,-0.0281,0.6416,0.6918,0.5453,1.1707,0.1687,1.0817,-1.18,28.77,13.11,64.39,75.35,-90.65,124904,2016-03-24 12:47:15:945
4.0061,-10.9716,1.139,1.1459,-9.6495,1.3208,5.0047,0.6509,-0.1878,0.9476,0.175,1.0859,1.78,31.23,7.42,14.36,79.73,-40.94,125003,2016-03-24 12:47:16:044
10.1087,-11.0544,-0.6385,0.8071,-9.6479,1.561,4.4058,-4.2176,-0.7035,0.3807,0.1841,0.6106,2.84,32.46,5.35,358.16,79.68,-27.34,125104,2016-03-24 12:47:16:145
4.2198,-13.341,-1.1121,2.4173,-9.4993,-0.2997,7.2489,-0.1954,-2.4438,-1.9815,-0.9259,-2.0622,3.07,33.03,6.23,31.39,75.62,-97.07,125204,2016-03-24 12:47:16:245
2.9076,-9.3143,-2.4317,3.8898,-8.8307,-1.7488,-0.4376,-5.0818,1.1528,-1.6863,-0.8562,-2.5223,-4.74,27.98,12.97,71.56,64.22,-114.21,125304,2016-03-24 12:47:16:345
0.3954,-3.195,0.8305,5.8124,-6.8516,-3.9297,-3.2281,-1.9141,1.7167,-1.0861,-1.7893,-2.2044,-7.75,24.98,16.22,51.44,44.32,-124.06,125404,2016-03-24 12:47:16:445
12.1643,-2.9591,-6.826,5.4611,-6.0162,-5.491,4.3139,2.8977,-0.7,0.2747,-1.4922,-0.4067,-6.93,20.01,20.8,69.76,37.84,-135.16,125504,2016-03-24 12:47:16:545
1.6603,-12.9842,-10.4166,5.3017,-6.2538,-5.3808,0.2194,4.1438,0.7479,1.1898,-0.3942,-0.0407,-4.8,20.48,21.21,72.02,39.62,-135.42,125604,2016-03-24 12:47:16:645
9.1738,-10.4583,0.3894,4.9671,-7.5873,-3.7325,-5.9201,-1.0725,5.5114,0.9483,2.2108,1.9716,-5.95,23.58,19.81,79.93,50.69,-126.92,125704,2016-03-24 12:47:16:745
3.9062,-6.8426,-1.6164,4.3753,-8.4015,-2.5381,3.9161,-0.5619,2.4177,1.1951,1.6897,1.8333,-7.42,26.45,16.25,82.58,58.95,-120.12,125804,2016-03-24 12:47:16:845
5.9805,-6.4519,-0.3667,2.6453,-9.3833,-1.0616,4.0943,0.4356,0.3644,1.0893,-0.0121,1.0194,-2.73,29.42,10.86,62.69,66.92,-116.39,125904,2016-03-24 12:47:16:945
4.6873,-8.6777,1.0427,2.014,-9.5957,-0.1918,2.4362,2.4336,2.0091,1.4548,0.3553,1.2308,-0.7,29.39,6.78,50.51,73.1,-111.87,126004,2016-03-24 12:47:17:045
3.4552,-11.0906,0.9471,0.6894,-9.7177,1.1236,4.9869,1.2273,-0.2089,0.8993,0.7473,1.092,1.61,30.56,5.73,28.84,81.99,-66.32,126104,2016-03-24 12:47:17:145
8.2319,-14.3857,-1.6795,0.3549,-9.7124,1.309,3.8387,-1.6088,-0.4435,0.8562,-0.0297,0.8637,3.54,31.08,2.88,339.42,82.05,-15.17,126204,2016-03-24 12:47:17:245
4.8333,-11.1545,1.1107,1.8349,-9.623,-0.4491,2.6009,-2.0052,0.8678,-1.418,-0.5166,-1.1641,6.23,28.43,2.7,345,83.79,-41.8,126306,2016-03-24 12:47:17:347
5.0157,-7.6238,-0.8185,4.0944,-8.5774,-2.4155,2.691,1.4948,3.0656,-1.4731,-0.2813,-1.6366,5.38,25.58,9.76,52.5,69.46,-119.61,126404,2016-03-24 12:47:17:445
2.2574,-5.6864,-0.5741,5.0597,-7.8075,-3.1005,-2.7564,1.1194,2.0464,-0.667,-0.8966,-2.3254,2.94,25.17,3.44,14.53,52.76,-121.5,126505,2016-03-24 12:47:17:546
4.7331,-4.8791,-3.3935,5.5107,-7.1071,-3.9103,-3.2609,1.1084,3.6702,-0.6139,-1.4571,-1.9204,-4.58,24.15,-2.03,340.15,52.76,-121.5,126605,2016-03-24 12:47:17:646
7.817,-1.136,-3.0532,5.4808,-6.5142,-4.8679,3.3091,3.4252,-0.1265,0.2021,-1.2933,-0.6849,-14.7,18.87,1.67,303.57,42.54,-129.65,126704,2016-03-24 12:47:17:745
0.9821,-19.4222,-13.5198,5.609,-7.4463,-3.0433,-7.0586,-1.8344,-2.1913,1.4707,1.5583,0.4129,-15.03,16.57,9.6,232.02,45.54,-127.49,126804,2016-03-24 12:47:17:845
8.3842,-11.1997,2.6449,5.3083,-7.9729,-2.1036,0.4054,-0.2575,0.1572,0.3116,2.3595,0.9608,-15.17,18.45,10.13,135.61,54.39,-111.62,126904,2016-03-24 12:47:17:945
6.2433,-7.8404,-6.1107,3.5333,-9.1418,-0.3358,3.4675,-1.3684,1.8198,0.7228,1.4322,1.4875,-14.04,22.17,7.66,131.34,63.13,-103.84,127004,2016-03-24 12:47:18:045
2.5126,-9.2334,1.5254,2.9468,-9.3533,0.056,1.8699,2.2799,1.1203,0.3655,0.7234,1.0799,-11.93,23.73,5.6,123.5,72.51,-88.91,127104,2016-03-24 12:47:18:145
4.1425,-8.4351,1.4769,1.4833,-9.5865,1.4382,1.9351,0.571,-0.8305,1.0208,0.652,1.3048,-9.03,28.46,3.79,75.84,77.84,-45.88,127203,2016-03-24 12:47:18:244
6.494,-14.0979,0.2616,0.8718,-9.581,1.9015,6.41,0.8988,-1.4389,0.7432,0.3512,1.059,-7.04,29.4,2.87,65.26,77.84,-45.88,127304,2016-03-24 12:47:18:345
9.1279,-11.1043,-2.0695,1.1303,-9.6704,1.1731,8.8037,-2.6396,-2.4055,-1.1503,-0.1333,-0.7415,-2.98,33.77,3.77,37.49,80.44,-43.94,127409,2016-03-24 12:47:18:450
1.5676,-13.6375,1.0168,2.4147,-9.5044,-0.0751,4.0673,-0.6797,-1.2126,-1.928,-0.643,-2.1583,-2.98,34.38,7.55,56.51,75.74,-91.78,127503,2016-03-24 12:47:18:544
3.9561,-8.506,-4.2977,5.006,-8.2014,-1.9613,0.1372,-1.6442,5.4851,-1.2088,-0.3185,-2.2859,-7.12,28.3,18.97,74.83,56.75,-111.39,127604,2016-03-24 12:47:18:645
0.0208,-3.5978,-0.7996,5.8978,-7.3106,-2.8179,-2.0292,-0.5426,-0.1264,-0.7017,-1.4548,-2.1198,-8.66,26.45,21.76,75.25,48.2,-115.54,127704,2016-03-24 12:47:18:745
9.5877,-3.2546,-4.9253,6.1435,-6.3032,-4.324,-5.1682,2.8013,2.8209,0.0355,-1.389,-0.8191,-6.35,24.4,26.8,74.28,40,-125.14,127805,2016-03-24 12:47:18:846
5.1803,-14.4433,-7.5673,5.9674,-6.3387,-4.5147,2.7095,3.2082,-0.2934,0.8894,-0.8969,0.2238,-4.42,26.13,27.38,68.41,40,-125.14,127904,2016-03-24 12:47:18:945
-0.6832,-11.0858,1.1015,5.4709,-7.4692,-3.2327,-7.5116,0.2059,0.7569,0.6806,2.2064,1.7773,-2.7,32.96,19.63,46.01,43.9,-125.58,128004,2016-03-24 12:47:19:045
4.1282,-6.6891,0.2463,3.9838,-8.8895,-1.1296,0.5842,1.6267,1.237,0.8541,1.9946,1.7619,-1.7,34.07,14.63,38.59,49.61,-120.58,128104,2016-03-24 12:47:19:145
6.5579,-5.4664,0.5857,2.9203,-9.3534,-0.3954,3.4762,0.8007,-0.1958,0.9172,0.42,1.7681,3.11,36.2,8.92,36.71,72.51,-97.71,128204,2016-03-24 12:47:19:245
-1.4074,-11,-3.8756,1.6233,-9.5975,1.193,-1.2356,-0.5792,-1.4027,1.552,0.5674,0.3552,5.26,36.5,5.12,4.29,78.15,-53.69,128304,2016-03-24 12:47:19:345
5.0058,-13.8318,-0.8288,0.7544,-9.6379,1.6466,3.1157,0.1048,-1.0822,0.6312,0.8365,1.7071,7.7,33.79,-1.16,318.4,79.36,-24.62,128405,2016-03-24 12:47:19:446
9.0083,-12.0488,-2.0197,0.537,-9.7082,1.2775,7.5977,-5.4107,-0.9472,-0.4441,0.4238,0.4387,11.97,30.84,-5.15,282.45,79.57,-9.91,128504,2016-03-24 12:47:19:545
0.7509,-15.9912,0.6577,1.8431,-9.6292,0.2284,7.0055,-1.9576,-2.1732,-1.1504,-0.6999,-1.1962,12.19,29.8,-4.06,342.13,79.08,-82.93,128604,2016-03-24 12:47:19:645
2.18,-8.977,-0.4196,4.7238,-8.3849,-1.8841,-0.7413,-1.3209,3.0016,-2.2148,0.6994,-2.2382,2.37,27.5,-6.23,344.56,58.76,-111.74,128704,2016-03-24 12:47:19:745
0.1991,-3.1953,-0.2937,5.773,-7.4777,-2.6319,-4.0658,1.5397,1.6053,-1.0298,-0.4083,-2.4901,-5.39,24.27,-7.19,329.39,49.69,-114.51,128803,2016-03-24 12:47:19:844
9.6554,-4.8084,-5.1866,6.065,-6.3322,-4.3919,-0.5826,2.8563,0.9969,-0.2708,-1.833,-0.9575,-16.07,18.59,-5.42,300.88,40.22,-125.91,128903,2016-03-24 12:47:19:944
-6.9273,-12.4816,-11.2064,5.9427,-6.0819,-4.8853,3.2818,1.623,-2.0001,0.214,-1.6944,-0.8513,-18.1,15.82,-1.75,289.97,38.33,-129.42,129004,2016-03-24 12:47:20:045
5.9415,-13.3573,1.3388,5.1882,-7.3593,-3.8851,-8.3381,-1.1276,1.3778,0.4811,1.5526,1.763,-19.92,12.94,3.79,257.83,41.64,-130.34,129104,2016-03-24 12:47:20:145
2.8959,-7.2808,-0.6036,4.7693,-8.1447,-2.6623,1.6161,-3.9307,2.989,0.7101,2.7733,1.9524,-19.52,15.35,1.74,228.99,56.15,-119.17,129203,2016-03-24 12:47:20:244
4.9267,-7.0373,3.7715,2.8207,-9.3399,-0.9902,2.1903,1.2748,0.2937,0.9369,0.8179,1.9236,-16.72,20.29,-4.59,252.47,64.58,-113.91,129303,2016-03-24 12:47:20:344
3.2697,-8.4593,-0.1708,1.6643,-9.6098,1.0258,1.4729,0.5484,-1.5857,1.4377,0.4288,1.0015,-14.42,23.38,-6.24,167.6,78.5,-58.35,129404,2016-03-24 12:47:20:445
4.5179,-13.0366,-0.1561,1.0416,-9.6199,1.5946,4.6467,0.6361,-0.4775,0.9114,0.1501,1.0618,-12.16,24.82,-7.3,139.7,78.8,-33.15,129504,2016-03-24 12:47:20:545
8.3557,-13.2447,-0.874,0.8434,-9.6573,1.482,8.5101,-3.6745,-1.411,-0.5574,-0.0953,-0.2682,-9.86,28.64,-7.47,138.06,79.99,-29.64,129605,2016-03-24 12:47:20:646
1.2659,-14.8899,1.3959,1.8649,-9.62,0.3842,6.2549,-1.2085,-1.7125,-1.8024,-1.1254,-1.6806,-10.06,30.18,-5.34,122.32,79.99,-29.64,129704,2016-03-24 12:47:20:745
1.6572,-10.1881,-1.3306,4.4523,-8.5215,-1.9314,0.8503,-3.6849,4.8478,-1.3219,-0.368,-2.588,-16.03,29.66,6.8,168.19,70.53,-109.22,129803,2016-03-24 12:47:20:844
1.9963,-5.7282,0.1373,5.54,-7.613,-2.7424,-3.7073,-1.2202,1.5053,-0.873,-1.1855,-2.2362,-19.43,24.83,9.66,149.5,50.92,-116.34,129904,2016-03-24 12:47:20:945
8.4673,-3.8422,-3.8514,6.1018,-6.3538,-4.3091,-5.6628,2.2598,3.0712,-0.1986,-1.6468,-1.0053,-20.5,20,17.11,141.56,40.38,-125.23,130004,2016-03-24 12:47:21:045
7.5203,-1.8461,-3.4518,5.8334,-6.2578,-4.794,2.1012,2.1322,-0.0062,0.642,-1.4586,0.0353,-18.95,16.93,19.9,130.43,40.38,-125.23,130104,2016-03-24 12:47:21:145
-4.0621,-3.9214,3.3712,5.6352,-7.2008,-3.5445,-9.2421,0.769,1.8888,0.4591,2.4073,1.821,-17.29,22.96,20.99,93.94,41.83,-128.02,130204,2016-03-24 12:47:21:245
5.1226,-5.5314,-0.9199,5.194,-7.9669,-2.3921,3.1984,-2.9091,2.9568,0.7881,2.199,1.7171,-16.56,25.33,15.74,114.64,54.33,-114.73,130304,2016-03-24 12:47:21:345
6.7895,-9.3006,-0.7269,3.3153,-9.2067,-0.6441,2.0896,0.3488,-0.4198,1.158,1.2599,2.2828,-16.51,28.81,11.47,125.37,62.32,-107.5,130404,2016-03-24 12:47:21:445
0.3908,-9.5816,-3.1224,1.9321,-9.5876,0.7174,0.4301,0.215,-1.1437,0.7187,0.3803,1.4893,-13.7,30.97,8.73,121.9,69.86,-100.99,130504,2016-03-24 12:47:21:545
6.0325,-7.6226,0.9705,1.225,-9.6582,1.1781,2.6049,0.8916,-1.3379,0.7545,0.4355,1.3439,-8.04,36.43,5.87,64.74,80.02,-46.12,130604,2016-03-24 12:47:21:645
7.6491,-13.2868,-0.1832,0.3171,-9.6525,1.7026,4.2131,-4.8863,-1.6525,0.7005,0.3158,0.9258,-4.68,37.37,3.38,48.89,80.02,-46.12,130704,2016-03-24 12:47:21:745
6.7775,-10.0137,0.2247,0.8321,-9.7225,0.9751,9.1866,-2.9485,-0.6766,-0.8914,0.3522,0.0899,1.35,36.09,1.95,355.84,79.83,-10.55,130804,2016-03-24 12:47:21:845
2.9218,-13.9338,2.3673,2.2142,-9.5494,-0.2775,5.7083,-1.4506,-1.9307,-1.5699,-1.0274,-1.7394,3.13,36.65,3.73,1.84,82.49,-40.48,130906,2016-03-24 12:47:21:947
1.3958,-9.7846,-1.5828,5.2877,-7.9068,-2.3861,-3.6846,-2.0907,0.2636,-1.0986,-1.2162,-3.117,-0.84,35.43,10.56,30.5,53.73,-114.29,131003,2016-03-24 12:47:22:044
0.5155,-3.6853,-0.8897,6.1055,-6.2839,-4.4052,-5.2194,2.2567,3.6488,-0.4069,-2.1617,-1.7223,-6.9,29.14,13.5,28.48,39.85,-125.81,131104,2016-03-24 12:47:22:145
9.0938,-4.1982,-5.8698,5.6372,-6.1542,-5.1496,1.2626,1.6804,0.324,0.0797,-2.2483,-0.5332,-8.13,26.49,14.37,24.97,38.87,-132.41,131204,2016-03-24 12:47:22:245
-3.2753,-12.2211,-8.365,5.3902,-6.7297,-4.672,-0.2891,-5.3942,-2.039,0.441,0.6746,0.5281,-8.13,24.26,14.66,42.87,43.33,-130.92,131304,2016-03-24 12:47:22:345
8.2656,-12.0735,-0.8188,5.219,-7.3251,-3.9083,-6.5028,1.2984,5.1654,0.1682,1.8122,1.412,-9.7,22.69,14,37.5,43.33,-130.92,131403,2016-03-24 12:47:22:444
4.6776,-8.8898,-1.6446,3.9274,-8.7587,-2.0077,0.3377,1.3324,1.4222,1.0204,0.7962,1.9524,-9.76,23.35,9.48,50.32,55.2,-119.99,131504,2016-03-24 12:47:22:545
5.8351,-6.4511,1.1554,2.9534,-9.2539,-1.3467,2.4193,-0.1436,0.2833,0.9918,0.3228,1.7501,-9.23,25.7,8.88,120.7,70.67,-114.51,131604,2016-03-24 12:47:22:645
5.8466,-8.0117,0.0412,1.5927,-9.6622,0.525,-1.5383,0.331,-0.9328,1.3546,0.7654,1.2363,-6.96,27.88,7.69,99.92,75.78,-100.09,131705,2016-03-24 12:47:22:746
3.4179,-12.8711,0.2902,0.9329,-9.6841,1.2325,4.454,-0.3595,-0.2035,1.0696,0.2152,1.0262,-5.24,28.34,7.24,49.78,80.93,-37.12,131804,2016-03-24 12:47:22:845
7.2149,-10.6693,-0.9543,0.9092,-9.722,0.9087,7.3225,-3.3902,-1.315,-0.8858,-0.0069,-0.4729,-5.4,33.58,10.07,53.12,82.47,-45.01,131904,2016-03-24 12:47:22:945
2.5913,-12.3041,0.1968,1.9021,-9.618,-0.2176,4.0603,-0.9411,-1.2242,-1.9587,-0.4992,-1.7872,-6.82,32.16,14.9,57.8,82.47,-45.01,132004,2016-03-24 12:47:23:045
2.2932,-8.6265,-3.0653,4.2906,-8.5038,-2.3337,1.0981,-1.6086,4.9219,-1.2264,-0.537,-2.3918,-7.71,23.42,31.03,107.73,60.13,-118.54,132103,2016-03-24 12:47:23:144
1.2508,-5.0111,0.1929,5.2866,-7.6006,-3.2331,-3.8607,1.1971,4.023,-0.8194,-1.4165,-1.3666,-2.59,12.95,40.48,105.81,43.86,-126.13,132204,2016-03-24 12:47:23:245
7.7117,-1.8349,-4.4713,5.6209,-6.335,-4.944,-3.8803,2.8936,2.9325,-0.0815,-1.8092,-0.7682,2.6,11.1,42.5,101.94,43.86,-126.13,132304,2016-03-24 12:47:23:345
8.5051,-17.4964,-4.5409,5.3196,-6.6917,-4.8055,3.6976,3.6994,-0.6327,0.7806,0.2051,0.1249,9.24,13.88,46.2,98.41,40.66,-133.68,132404,2016-03-24 12:47:23:445
9.5054,-9.9224,-1.0004,5.2323,-7.3158,-3.908,-3.1181,-5.1623,-4.3561,0.7061,3.3377,2.0333,12.01,17.37,46.63,93.99,43.03,-132.09,132504,2016-03-24 12:47:23:545
4.4977,-8.1035,-1.2206,3.9156,-8.8135,-1.7779,-0.3008,1.1733,1.0971,1.0297,1.6369,1.8026,5.01,20.07,47.12,95.86,63.99,-114.42,132604,2016-03-24 12:47:23:645
6.8906,-5.5202,-1.6839,2.9525,-9.2913,-1.0605,3.2811,1.2393,1.2862,0.7864,1.164,2.144,1.68,26.22,45.45,95.72,71.34,-109.76,132704,2016-03-24 12:47:23:745
4.534,-8.4236,0.3871,1.6641,-9.6336,0.7712,-1.2011,-0.6974,-3.389,1.8603,0.6169,0.7027,3.89,31.71,42.51,75.45,76.35,-90.37,132804,2016-03-24 12:47:23:845
4.2969,-11.1376,1.6292,1.0115,-9.6753,1.2395,4.5884,1.5331,0.3151,0.4958,0.6722,1.222,7.29,37.47,41.28,26.16,80.61,-39.22,132904,2016-03-24 12:47:23:945
8.4738,-11.0732,-1.6864,0.5734,-9.7035,1.2976,7.3818,-5.0783,-1.1312,-0.1251,0.366,0.4484,12.49,42.72,37.25,1.46,80.38,-19.68,133004,2016-03-24 12:47:24:045
4.2612,-11.2218,-0.5341,1.5029,-9.6826,0.3997,7.6781,-1.0583,-1.9112,-0.945,-0.5597,-0.7474,16.46,41.75,37.97,45.93,80.88,-75.11,133103,2016-03-24 12:47:24:144
1.0208,-10.2523,-2.1046,4.5498,-8.5016,-1.7868,-2.3994,-6.6792,3.3539,-1.9086,0.1203,-2.6987,17.41,38.69,38.7,63.93,60.1,-111.44,133204,2016-03-24 12:47:24:245
1.8111,-5.2922,0.1847,5.918,-7.4071,-2.5064,-1.8995,-2.4491,3.1875,-1.1373,-0.3154,-3.0505,14.56,36.72,38.59,60.95,49.05,-112.95,133304,2016-03-24 12:47:24:345
8.9197,-2.4939,-3.5335,6.3422,-5.867,-4.6395,-1.9185,2.1983,2.0164,-0.4356,-2.1111,-1.2994,9.66,34.17,36.67,62.02,36.75,-126.19,133404,2016-03-24 12:47:24:445
10.3873,-4.6037,-3.3677,6.0996,-5.7378,-5.1033,3.5615,4.0326,0.4521,0.2759,-1.7026,-0.5197,10.53,34.13,34.5,59.83,36.75,-126.19,133504,2016-03-24 12:47:24:545
8.8062,-15.8051,0.3758,5.9509,-6.7479,-3.9017,-10.8378,-1.3028,2.878,0.7039,1.5465,1,7.65,38.38,29.17,53.44,43.48,-123.25,133603,2016-03-24 12:47:24:644
5.4503,-5.7923,-0.4804,4.5272,-8.5745,-1.4672,1.0428,1.7356,1.072,1.0935,1.7176,2.2737,5.74,40.74,22.92,51.78,60.97,-107.96,133703,2016-03-24 12:47:24:744
7.7815,-5.4778,0.083,3.3756,-9.183,-0.67,1.5854,1.2511,-0.2061,0.7692,1.4203,2.0927,8.56,41.17,19.47,46.73,69.46,-101.23,133804,2016-03-24 12:47:24:845
-2.7395,-11.543,-3.7181,2.1554,-9.4912,1.2008,-0.9103,-0.3293,-0.8637,1.2858,0.4641,1.1337,13.92,42.2,13.54,25.4,73.22,-84.79,133904,2016-03-24 12:47:24:945
6.4827,-8.1482,1.7889,1.4277,-9.5538,1.6905,1.3925,0.3272,-2.6245,0.7991,0.2135,1.0413,15.77,41.94,9.07,0.15,75.43,-60.88,134004,2016-03-24 12:47:25:045
9.0667,-12.9153,-0.8029,1.0648,-9.5877,1.7644,8.0409,-3.8325,-1.6788,-0.3912,-0.052,-0.0726,18.77,41.11,5.18,328.58,77.87,-31.11,134103,2016-03-24 12:47:25:144
6.45,-9.4944,-1.6369,1.8997,-9.5859,0.8195,5.5598,-0.4954,-2.3089,-1.6474,-1.0819,-1.499,15.06,39.69,5.22,356.76,77.82,-66.66,134204,2016-03-24 12:47:25:245
4.7369,-10.4221,1.7194,4.7976,-8.4216,-1.4936,0.542,-3.3828,5.1682,-1.561,0.1409,-3.2113,3.94,37.39,10.44,28.61,59.18,-107.29,134304,2016-03-24 12:47:25:345
1.7076,-6.0506,-0.1406,6.1095,-7.3014,-2.3526,-4.0338,-1.5783,0.1064,-1.1837,-1.1696,-2.3963,-2.25,35.31,13.35,42.33,59.18,-107.29,134405,2016-03-24 12:47:25:446
2.6483,-3.9351,-2.7744,6.4263,-5.8831,-4.5015,-5.2953,1.6602,2.7929,-0.156,-2.4023,-0.7183,-7.1,29.46,18.5,45.66,40.82,-117.4,134504,2016-03-24 12:47:25:545
5.6998,-2.1433,-2.7995,5.9935,-5.8378,-5.1156,2.4105,1.7836,0.5305,0.665,-1.2325,0.1205,-5.18,28.73,20.78,46.67,36.86,-125.01,134605,2016-03-24 12:47:25:646
10.0222,-13.7262,-0.5113,5.9964,-6.7446,-3.8372,-4.238,-2.0184,-2.8013,1.605,0.8186,0.0818,-3.7,28.7,20.59,45,36.53,-130.48,134703,2016-03-24 12:47:25:744
8.1661,-9.9492,1.0658,5.6557,-7.5494,-2.6814,-2.577,-1.3191,2.6274,0.5165,1.6768,0.8913,-3,30.08,19.23,47.91,43.45,-122.62,134803,2016-03-24 12:47:25:844
5.5193,-8.117,-1.032,3.9468,-8.9707,-0.3453,1.9374,1.1102,-1.7184,1.3293,2.0163,1.8168,-1.86,33.21,15.02,55.07,66.17,-95,134903,2016-03-24 12:47:25:944
1.0004,-10.3004,0.4726,2.6724,-9.3625,1.1712,-0.717,-0.6249,-0.0716,1.3366,-0.3377,0.9441,1.99,35.67,9.79,33.88,70.6,-85.36,135004,2016-03-24 12:47:26:045
3.8546,-8.945,1.6811,2.0489,-9.4003,1.899,0.393,-0.0702,-2.6304,1.5191,0.5321,0.9044,3.77,36.68,8.43,9.63,73.45,-47.18,135104,2016-03-24 12:47:26:145
6.149,-14.333,0.595,1.1312,-9.4205,2.4787,3.7228,-3.5258,-2.4994,0.5602,0.4436,0.6987,7.46,37.83,5.2,350.05,73.43,-32.33,135204,2016-03-24 12:47:26:245
8.4933,-11.1345,-1.9718,1.3515,-9.5138,1.9575,6.9919,-4.4438,-1.8696,-0.6226,0.5597,-0.0108,9.05,35.9,4.34,343.09,75.96,-34.62,135305,2016-03-24 12:47:26:346
2.9758,-12.6085,3.5434,3.4418,-9.1441,-0.8422,1.9176,-1.9713,0.0965,-2.3822,-0.8266,-1.9208,7.13,36.18,10.84,36.14,68.82,-103.75,135403,2016-03-24 12:47:26:444
2.9834,-7.2669,-0.2536,4.6148,-8.4557,-1.8374,0.9176,-3.0146,5.8921,-1.7798,-0.6529,-2.0392,4.97,34.28,16.16,46.03,59.57,-111.71,135504,2016-03-24 12:47:26:545
1.182,-4.6986,0.7674,6.307,-6.7003,-3.3909,-1.808,0.1345,3.8844,-0.3583,-1.5016,-2.0125,-0.82,29.92,20.5,57.54,49.91,-114.99,135604,2016-03-24 12:47:26:645
8.3594,-3.5475,-4.3433,6.2569,-6.4191,-3.977,-0.929,3.0544,0.6546,0.2717,-1.6731,-0.8441,-2.23,27.48,22.56,60.18,43.1,-118.26,135704,2016-03-24 12:47:26:745
7.8126,-11.3062,-3.9639,5.6572,-7.0742,-3.7579,2.1593,-0.8784,0.9491,1.1609,-0.1698,0.2667,1.04,26.73,22,60.88,46.17,-123.6,135804,2016-03-24 12:47:26:845
8.8966,-11.7414,0.5143,5.4765,-7.6213,-2.8448,-7.0099,-1.8607,-1.4048,0.7136,1.6904,0.9492,1.25,28.49,20.69,57.24,46.17,-123.6,135904,2016-03-24 12:47:26:945
5.7294,-8.4906,-1.801,4.0646,-8.8747,-0.9426,2.8078,1.7346,1.1339,0.9968,1.2659,1.8865,1.77,29.82,20.09,62.36,64.82,-103.06,136004,2016-03-24 12:47:27:045
5.3563,-6.328,1.8729,3.0705,-9.3098,-0.2648,2.2212,0.8545,-1.4023,0.8134,0.8677,1.6653,4.03,30.4,18.83,58.82,71.68,-94.93,136103,2016-03-24 12:47:27:144
4.1049,-8.3766,1.0958,1.9883,-9.4506,1.7036,-1.7494,-0.3133,-1.9524,1.2084,0.406,0.8834,8.36,35.1,14.16,28.26,74.39,-73.29,136204,2016-03-24 12:47:27:245
5.4765,-10.0246,1.4737,1.3622,-9.4804,2.1064,2.1716,0.1721,-2.3025,0.6416,0.3256,0.9537,9.48,35.27,11.78,357.45,75.18,-32.89,136304,2016-03-24 12:47:27:345
9.8181,-12.2999,-0.6913,0.7222,-9.4997,2.3249,5.2722,-2.4166,-1.3775,-0.3386,0.4324,0.129,14.4,35.22,9.27,333.04,75.63,-17.26,136404,2016-03-24 12:47:27:445
6.1857,-11.4738,-0.7592,2.6998,-9.4159,0.4723,3.023,-2.8407,-1.145,-1.2947,-0.4431,-1.2634,14.98,35.29,10.71,334.48,75.63,-17.26,136504,2016-03-24 12:47:27:545
1.4511,-9.2596,-2.7871,4.1992,-8.8447,-0.5552,-0.9021,-4.6168,4.9105,-0.8371,-1.7403,-2.784,9.76,34.36,16.78,34.6,73.77,-80.08,136604,2016-03-24 12:47:27:645
2.8029,-5.7047,-0.5508,6.243,-7.1047,-2.5919,-3.9413,1.0991,1.5225,-1.3132,-0.9219,-2.3571,4.34,34.14,18.46,44.49,54.65,-106.11,136704,2016-03-24 12:47:27:745
7.5293,-3.7545,-4.0647,6.3882,-6.4919,-3.6354,-4.8875,1.8861,3.4573,-0.6405,-1.8879,-0.6803,1.13,30.13,21.21,49.19,41.45,-119.64,136804,2016-03-24 12:47:27:845
5.1206,-0.5312,2.555,6.2552,-6.4076,-3.9981,3.8671,4.4441,0.4352,0.2808,-0.9756,-0.2313,2.48,30.4,23.24,52.46,40.8,-122.59,136904,2016-03-24 12:47:27:945
-0.8533,-10.9945,0.1246,6.1487,-6.9231,-3.2303,-1.1068,-2.5759,-0.4431,1.4086,0.7598,0.2292,1.94,30.29,21.69,53.18,44.91,-117.72,137006,2016-03-24 12:47:28:047
7.1309,-8.263,0.6529,4.4889,-8.6304,-1.2393,0.1986,-2.1315,2.2433,0.7196,1.996,2.4321,1.94,34.64,19.08,53.66,61.65,-105.43,137104,2016-03-24 12:47:28:145
1.9972,-7.7693,2.839,3.6199,-9.1102,-0.2669,3.6911,-0.0135,0.5589,1.3401,1.8512,1.8989,3.51,35.88,17.11,47.38,68.28,-94.22,137204,2016-03-24 12:47:28:245
4.4719,-8.3157,0.341,2.1527,-9.468,1.3758,-0.1299,-0.4321,-3.823,1.569,-0.0069,1.0707,7.74,35.72,12.87,28.51,72.55,-78.95,137304,2016-03-24 12:47:28:345
4.0094,-9.8981,2.1168,1.5483,-9.4848,1.9524,3.38,0.9221,-0.7349,0.9773,0.4089,1.1627,10.08,36.5,8.02,352.4,75.28,-38.42,137406,2016-03-24 12:47:28:447
10.6907,-15.6094,2.149,0.8505,-9.5067,2.2517,6.7313,-5.3941,-1.6783,0.1298,0.5394,0.5522,14.74,36.26,5.68,332.03,74.87,-25.11,137503,2016-03-24 12:47:28:544
4.5457,-10.9051,-1.0005,1.4425,-9.6002,1.3879,8.4226,-1.4754,-3.5827,-0.9626,-0.2533,-0.3428,16,35.23,5.5,343.26,78.22,-46.1,137605,2016-03-24 12:47:28:646
9.9882,-8.6339,8.2661,4.3733,-8.6783,-1.3158,-1.8527,-6.1722,3.0373,-2.046,-0.4942,-2.8448,10.44,37.15,7.98,24.01,62.24,-106.74,137707,2016-03-24 12:47:28:748
3.1299,-5.4523,0.2998,5.7559,-7.6656,-2.0684,0.011,-2.3246,5.0385,-1.0083,-0.9081,-2.9652,4.42,36.48,11.25,33.96,62.24,-106.74,137804,2016-03-24 12:47:28:845
5.6688,-4.2323,-2.4108,6.5674,-6.1916,-3.8344,-5.287,0.8124,3.2516,-0.3112,-1.7947,-1.3814,-4.02,32.23,13.62,28.99,39.15,-120.28,137904,2016-03-24 12:47:28:945
8.58,-0.0838,-3.912,6.1635,-5.969,-4.7489,3.3298,5.0289,1.1615,0.6781,-1.0596,-0.2071,-5.37,30.36,15.54,31.92,37.49,-127.61,138004,2016-03-24 12:47:29:045
-2.9555,-3.4207,2.782,5.9767,-6.3787,-4.4455,-2.5716,-5.0556,-3.9605,0.6954,0.2099,0.408,-6.95,30.66,15.45,25.93,37.49,-127.61,138103,2016-03-24 12:47:29:144
8.6951,-9.5576,0.7243,5.1469,-8.0382,-2.2508,2.5985,-2.9202,2.5737,0.7441,2.2576,2.0311,-5.25,32.37,10.32,21.86,47.02,-121.1,138204,2016-03-24 12:47:29:245
6.2702,-7.1378,1.1989,4.2428,-8.7378,-1.3491,0.3495,1.2166,1.4077,0.6807,1.7247,2.0684,-2.82,33.53,7.18,27.65,63,-107.64,138304,2016-03-24 12:47:29:345
0.543,-9.7096,0.6969,2.5654,-9.463,0.1993,3.2795,2.4897,0.8124,1.9406,0.1441,0.9757,3.34,35.75,4.87,21.86,70.15,-103.53,138404,2016-03-24 12:47:29:445
4.68,-7.9922,1.035,1.9487,-9.5468,1.1095,-1.5161,-0.6894,-2.7435,0.9271,0.5432,0.9975,6.16,35.52,1.3,1.99,74.79,-85.56,138504,2016-03-24 12:47:29:545
4.3273,-15.231,-0.5057,0.9309,-9.5685,1.936,4.2212,-0.4121,-0.1062,0.2099,0.3836,0.6723,9.07,35.19,-1.85,317.25,77.35,-25.68,138605,2016-03-24 12:47:29:646
6.5386,-8.676,-1.1778,0.9144,-9.6136,1.7067,5.1681,-6.2558,-1.5051,-0.5379,-0.0776,-0.2204,10.52,36.61,-1.34,318.6,78.61,-28.18,138703,2016-03-24 12:47:29:744
1.8493,-14.1027,-0.1875,2.8663,-9.3605,-0.5799,-0.1705,-4.0202,0.1548,-2.2106,0.0254,-2.1386,7.61,36.75,2.64,357.62,78.94,-65.14,138806,2016-03-24 12:47:29:847
3.32,-8.1231,-2.0726,4.553,-8.5284,-1.6451,0.8064,-2.759,4.7687,-1.7503,-0.3361,-3.4508,-0.88,36.4,8.98,46.8,72.65,-101.44,138904,2016-03-24 12:47:29:945
0.3029,-4.4665,0.5207,6.5115,-6.3151,-3.7269,-5.298,0.0356,3.7004,-1.15,-1.3292,-2.5265,-7.14,33.7,11.36,26.46,48.42,-114.13,139004,2016-03-24 12:47:30:045
9.6382,-2.4875,-5.6312,6.4353,-5.6716,-4.7528,-4.9034,2.4124,3.6493,-0.8485,-1.7816,-1.7365,-10.02,31.24,16.76,27.6,35.33,-126.45,139104,2016-03-24 12:47:30:145
0.6633,-11.808,-9.9583,5.8769,-6.0696,-4.9792,1.8899,4.4757,1.7219,0.8559,-1.2913,0.1863,-7.72,28.3,22.13,50.98,38.24,-130.27,139204,2016-03-24 12:47:30:245
6.3368,-10.9135,1.522,5.5462,-7.5005,-3.0252,-7.1044,1.2259,3.1662,0.3459,1.8546,1.2518,-7.59,30.72,21.12,64.69,49.89,-118.61,139304,2016-03-24 12:47:30:345
6.7473,-7.2923,-2.144,4.7383,-8.4246,-1.6567,1.8501,-2.8158,2.9932,1.0002,2.5021,2.0993,-6.99,32.33,18.37,69.12,59.21,-109.27,139404,2016-03-24 12:47:30:445
5.0425,-5.881,1.723,3.6552,-9.0699,-0.7392,4.0275,3.1151,-0.14,0.7157,1.11,1.6518,-3.36,37.66,12.66,52.42,67.65,-101.43,139503,2016-03-24 12:47:30:544
4.1775,-8.8165,0.6013,2.2499,-9.5121,0.7925,-2.6518,-1.4032,-2.9695,1.5642,-0.2137,0.8583,0.38,38.23,11.58,40.81,75.92,-70.6,139604,2016-03-24 12:47:30:645
6.9559,-11.4026,-0.2264,1.0781,-9.6166,1.5903,5.5625,-3.0833,-2.0251,0.5907,0.4539,0.8549,4.72,39.26,5.04,2.05,78.23,-49.3,139705,2016-03-24 12:47:30:746
9.0378,-9.6134,-2.9669,1.1197,-9.6484,1.351,7.2919,-5.0239,-1.4123,-0.1781,0.2621,0.2354,6.91,39.91,4.32,346.63,78.7,-34.13,139804,2016-03-24 12:47:30:845
1.732,-16.5401,0.4945,3.3987,-9.116,-1.2321,2.0614,-3.7146,0.0345,-2.3034,-0.6389,-2.2301,4.74,38.67,9.78,35.48,68.37,-109.93,139904,2016-03-24 12:47:30:945
3.0411,-6.0813,-0.6876,5.1502,-8.0959,-2.0254,-0.6507,-5.6793,5.938,-1.9135,0.2187,-2.9992,0.9,37.01,14.86,39.93,55.64,-111.47,140003,2016-03-24 12:47:31:044
-0.4247,-2.4031,-0.1628,6.8671,-5.8153,-3.8983,-4.2889,0.6738,4.1549,-0.6324,-1.9907,-1.8666,-10.77,26.9,26.86,65.66,36.37,-119.58,140104,2016-03-24 12:47:31:145
9.099,-3.3642,-4.5332,6.5585,-5.3637,-4.9384,-6.4988,2.8947,4.4455,0.0088,-2.3053,-1.0084,-10.03,25.17,31.85,72.85,33.16,-126.98,140204,2016-03-24 12:47:31:245
10.8462,-17.6856,-15.1768,5.9699,-5.9646,-4.9954,3.1375,2.5604,0.7863,0.8949,0.3765,0.6481,-1.07,25.08,36.02,78.83,37.46,-129.92,140304,2016-03-24 12:47:31:345
9.0061,-10.2009,1.6434,5.8863,-6.7301,-4.0284,-6.2494,0.2902,4.6837,0.6524,1.8152,1.4269,-1.06,27.12,35.46,79,43.34,-124.39,140403,2016-03-24 12:47:31:444
5.5699,-6.6266,-3.0167,4.7694,-8.3985,-1.6995,1.9096,0.4108,-0.0285,1.2445,1.224,2.0113,-2.59,34.3,32.2,78.49,58.92,-109.61,140504,2016-03-24 12:47:31:545
2.2688,-9.0714,-0.0624,3.3913,-9.2016,0.0351,0.6172,0.9773,0.1592,1.4153,0.3764,0.8958,0.52,38.6,27.5,62.29,69.77,-89.41,140604,2016-03-24 12:47:31:645
4.2511,-8.4384,0.8884,2.7975,-9.3676,0.7695,-0.4985,-0.1208,-2.3417,0.8825,0.6124,0.9793,2.39,41.95,25.35,56.32,69.77,-89.41,140704,2016-03-24 12:47:31:745
2.6134,-14.0772,-0.1072,1.6813,-9.4868,1.8287,3.0824,0.7071,-0.3368,0.7336,0.2481,0.8511,9.18,45.02,20.62,13.24,75.33,-42.59,140804,2016-03-24 12:47:31:845
7.4928,-14.2848,-0.5702,1.3268,-9.5192,1.948,2.3385,-4.543,-1.3585,-0.1161,0.0832,0.4119,10.75,45.84,19.79,9.33,75.33,-42.59,140904,2016-03-24 12:47:31:945
4.3301,-12.3801,0.9299,2.562,-9.4635,0.2189,5.5007,-0.6329,-1.3754,-1.9278,-1.1433,-2.1014,13.04,45.07,23.77,40.96,74.8,-85.12,141004,2016-03-24 12:47:32:045
3.4988,-12.0781,4.2528,3.6515,-9.0286,-1.1494,2.0169,-1.3592,1.0499,-2.2516,-0.045,-1.5013,11.26,43.24,28.97,49.08,74.8,-85.12,141104,2016-03-24 12:47:32:145
2.6634,-6.5923,-0.1771,5.939,-7.3621,-2.588,-2.5639,0.4232,2.6122,-0.3856,-0.8056,-2.7478,9.3,40.97,31.95,54.28,48.65,-113.55,141204,2016-03-24 12:47:32:245
1.808,-3.9397,-0.7838,6.3916,-6.5323,-3.5563,-4.9254,1.4907,3.2815,-0.1419,-1.9374,-2.4007,3.48,39.93,34.26,60.53,48.65,-113.55,141307,2016-03-24 12:47:32:348
8.1635,-2.5551,-3.8425,6.1144,-5.842,-4.9655,1.6415,2.9925,0.0583,0.3203,-1.9578,-1.0352,2.45,39.95,33.95,54.13,37.32,-125.2,141404,2016-03-24 12:47:32:445
-5.7517,-2.4817,-4.7018,6.0987,-6.0579,-4.72,2.4781,2.7271,1.319,1.0378,-1.145,-0.0365,2.63,40.31,33.38,53.8,38.15,-127.74,141504,2016-03-24 12:47:32:545
10.0529,-10.8176,0.2686,5.7772,-7.398,-2.8396,-4.878,-2.2784,5.1737,0.5687,2.0269,1.5335,3.41,43.62,28.1,50.77,48.97,-116.17,141603,2016-03-24 12:47:32:644
4.2274,-8.3946,-1.1651,5.196,-8.0999,-1.8877,3.5284,-0.9257,1.7513,0.9216,1.4973,1.453,6.02,45.13,25.47,48.03,55.69,-109.97,141704,2016-03-24 12:47:32:745
4.5456,-6.5542,-0.2401,3.4427,-9.1821,-0.0879,1.0868,0.0394,-0.49,1.5626,-0.0723,1.5879,9.72,48.13,18.87,38.34,63.23,-103.56,141804,2016-03-24 12:47:32:845
1.5592,-9.4931,-2.094,2.7653,-9.3522,1.0297,1.8068,2.0009,-1.1025,1.8644,-0.134,1.2135,13.82,46.32,14.24,26.39,69.44,-91.46,141906,2016-03-24 12:47:32:947
2.5536,-9.6403,1.6301,1.7199,-9.3523,2.3971,1.4651,-0.3964,-0.7305,0.9096,0.0509,0.7995,19.64,47.37,4.73,335.4,72.49,-35.66,142004,2016-03-24 12:47:33:045
6.3435,-12.5101,0.2728,0.9551,-9.363,2.7555,5.443,-3.5928,-2.3669,0.0015,0.2479,0.595,24.72,45.9,-1.45,310.69,72.7,-19.12,142104,2016-03-24 12:47:33:145
6.1779,-7.7775,2.4137,1.3138,-9.5393,1.8563,7.6075,-2.036,-3.3276,-1.2272,-0.6761,-0.1917,25.1,44.75,-1.66,316.72,76.59,-35.29,142204,2016-03-24 12:47:33:245
2.7207,-15.2942,3.9655,3.7216,-9.0246,-0.9366,0.7455,-4.2016,3.3717,-1.8554,-0.891,-2.1968,18.59,47.59,3.24,12.15,66.96,-104.13,142304,2016-03-24 12:47:33:345
2.5577,-6.6362,-0.125,5.063,-8.2463,-1.5922,1.1006,-4.1511,2.7482,-1.0689,-0.3355,-2.4667,9.4,49.45,8.45,18.04,57.23,-107.46,142403,2016-03-24 12:47:33:444
-1.6508,-3.8491,0.1111,6.3883,-6.7428,-3.1457,-4.6503,0.8713,3.0934,-0.0573,-2.1135,-1.339,-5.28,46.45,12.81,19.72,43.44,-116.22,142504,2016-03-24 12:47:33:545
8.3647,-2.7974,-5.5699,6.1174,-6.5796,-3.9316,-7.6791,2.6033,3.2598,0.0327,-1.813,-0.3869,-7.54,46.31,15.45,22.54,43.44,-116.22,142605,2016-03-24 12:47:33:646
-8.2284,-10.8423,-9.1883,5.955,-7.2628,-2.8214,0.164,4.2588,3.1415,1.9452,1.5209,0.336,-6.43,46.31,15.54,28.59,47.78,-115.35,142704,2016-03-24 12:47:33:745
-5.7838,-3.539,-1.2174,6.086,-7.5331,-1.5437,-3.2412,-6.3223,-5.5929,0.2013,2.4617,0.0793,-4.46,47.36,9.87,15.89,47.78,-115.35,142804,2016-03-24 12:47:33:845
10.6301,-9.8114,1.8659,4.4026,-8.7549,0.3729,4.6016,-3.1002,2.6481,1.0372,2.578,1.4775,0.23,48.78,6.88,17.15,63.22,-85.16,142904,2016-03-24 12:47:33:945
5.4189,-6.9383,2.6184,3.7358,-9.0046,1.0637,1.5225,1.1604,-4.3478,-0.0076,1.4891,0.8827,4.61,48.32,2.64,5.58,63.22,-85.16,143004,2016-03-24 12:47:34:045
4.4613,-8.3313,0.346,2.5511,-9.2046,2.222,-0.7163,0.028,-1.7741,0.6719,1.1767,1.2217,8.67,47.64,1.01,353.37,68.36,-64.45,143104,2016-03-24 12:47:34:145
6.6672,-9.875,0.9365,1.6546,-9.3485,2.4574,1.4551,0.0889,-3.1752,-0.0435,1.0204,1.1566,13.25,47.31,1.33,334.98,72.42,-33.95,143203,2016-03-24 12:47:34:244
8.403,-8.7091,0.1273,1.2315,-9.448,2.3214,6.6271,-1.4687,-1.6076,0.235,-0.8237,-0.6149,17.2,47.11,3.22,329.19,74.46,-27.95,143304,2016-03-24 12:47:34:345
0.9757,-16.51,-0.9745,2.2276,-9.4395,1.4507,5.9068,-1.3481,-3.3746,0.235,-0.8237,-0.6149,17.2,47.11,3.22,329.19,74.46,-27.95,143404,2016-03-24 12:47:34:445
4.1055,-5.049,-0.9041,5.2453,-8.2804,-0.3048,-0.4569,-2.7121,0.3979,-2.5382,2.2973,-2.6663,9.93,47.77,7.31,12.62,57.6,-93.33,143504,2016-03-24 12:47:34:545
-0.9642,-3.257,-0.1766,6.8905,-6.8715,-1.2139,-6.8056,2.6383,0.7527,-0.0879,-1.1358,-1.7926,-6.4,43.57,16.34,30.18,44.48,-99.99,143604,2016-03-24 12:47:34:645
14.2721,-9.0046,-6.7201,6.7021,-6.9766,-1.606,-7.5135,4.981,-0.5472,0.3109,-1.2988,-0.2984,-10.16,41.28,18.44,38.42,44.48,-99.99,143704,2016-03-24 12:47:34:745
7.894,-8.7866,-1.4993,6.2622,-7.3346,-1.7772,4.0185,-0.768,-5.3159,0.6317,-0.5784,0.3823,-6.69,43.32,18.36,37.84,48.41,-105.84,143804,2016-03-24 12:47:34:845
-2.4626,-3.9934,6.9971,6.2092,-7.3094,-2.047,-0.6944,-7.1915,-1.6584,0.0895,-0.5191,-0.1408,-5.17,43.57,18.05,35.72,48.19,-108.25,143904,2016-03-24 12:47:34:945
6.5019,-10.5313,-3.3781,4.8386,-8.4935,-0.7867,-1.4711,-2.3624,7.3329,0.739,1.5588,1.9902,-2.58,45.27,14.54,38.75,60.01,-99.23,144004,2016-03-24 12:47:35:045
3.239,-6.9396,2.2876,4.4686,-8.727,-0.2018,2.6962,-1.7242,-3.4507,0.4858,2.0891,0.8708,0.74,47.29,11.05,26.76,62.86,-92.59,144103,2016-03-24 12:47:35:144
2.4297,-8.8364,-2.7954,3.5557,-9.0866,0.9807,0.5613,1.1751,2.2081,1.0342,0.7023,0.8677,3.31,47.73,10.49,20.87,67.91,-74.58,144204,2016-03-24 12:47:35:245
9.3372,-7.244,0.4681,2.843,-9.2852,1.3687,3.934,0.2295,-1.5215,0.4878,0.792,1.1683,5.44,48.14,7.74,12.36,71.23,-64.29,144304,2016-03-24 12:47:35:345
6.6036,-13.4622,-5.795,2.7038,-9.3069,1.4973,6.5288,-0.7782,-0.4206,0.2913,-1.145,-0.1443,11.6,47.02,5.81,358.83,71.63,-61.02,144403,2016-03-24 12:47:35:444
2.203,-14.9206,0.5983,3.5779,-9.1222,0.3928,1.1913,-4.2965,-3.8906,-1.2527,-1.4224,-1.4007,11.91,47.2,4.94,356.96,71.63,-61.02,144504,2016-03-24 12:47:35:545
6.5006,-5.986,-0.6721,6.0693,-7.5402,-1.5749,-2.3656,-6.1125,1.6685,-1.625,0.6024,-2.5243,2.36,46.94,14.58,27.67,50.25,-104.55,144604,2016-03-24 12:47:35:645
-1.0346,-3.54,1.0338,6.84,-6.3176,-3.0778,-6.4117,1.7887,3.4655,-0.3346,-1.3484,-1.89,-3.64,44.06,18.85,33.11,42.63,-107.9,144708,2016-03-24 12:47:35:749
8.6536,-7.6655,-9.0088,6.525,-6.5707,-3.228,-8.0593,3.7651,3.8894,0.9245,-0.9073,0.2848,-6.8,41.49,23.2,40.54,40.11,-114.23,144804,2016-03-24 12:47:35:845
10.8961,-6.6248,-3.9552,6.352,-7.0117,-2.5803,7.3814,-1.352,-5.5915,0.7704,0.233,-0.153,-3.16,43.95,19.52,36,45.02,-115.07,144904,2016-03-24 12:47:35:945
7.2997,-19.4222,-19.6888,6.507,-6.9241,-2.4263,-1.0438,2.5567,2.0884,-0.5502,0.4577,-0.0657,-4.97,45.23,16.72,30.47,45.64,-112.11,145004,2016-03-24 12:47:36:045
6.5721,-15.2419,2.1907,5.5387,-7.9316,-1.6072,-0.4099,-5.7134,5.0484,0.7906,0.6752,0.6517,0.04,47.33,13.1,26.81,53.98,-106.18,145104,2016-03-24 12:47:36:145
1.8699,-3.9496,-3.7376,5.4057,-8.1218,-0.9926,-0.3582,1.5291,-1.7733,0.6067,0.8781,0.3746,1.71,48.04,8.53,18.72,55.91,-100.41,145204,2016-03-24 12:47:36:245
3.7779,-8.3872,-0.3064,4.5628,-8.6635,0.5439,-0.9714,-0.6388,-2.3905,0.0163,1.6564,1.046,5.58,48,5.88,11.6,58.62,-91.51,145304,2016-03-24 12:47:36:345
7.8876,-6.9772,-2.2036,3.921,-8.9481,0.8527,2.4222,0.4252,-0.3471,-0.0728,1.1331,1.0854,9.02,47.96,6.37,7.8,65.85,-77.73,145405,2016-03-24 12:47:36:446
12.6329,-7.1584,-3.5393,3.9461,-8.9738,0.2633,6.005,2.0301,-0.2323,0.0308,-0.1053,0.5601,9.84,48.98,5.4,5.27,65.85,-77.73,145504,2016-03-24 12:47:36:545
1.0336,-16.3601,0.5307,4.8589,-8.3864,-1.4934,4.5498,-4.8839,-3.6658,-0.7205,-3.455,-1.5174,13.73,48.48,5.93,15.79,58.78,-107.08,145604,2016-03-24 12:47:36:645
13.9129,-6.2264,-3.2835,7.078,-5.9748,-3.2209,-1.1855,-9.81,2.5557,-2.8071,1.5333,-2.4032,2.42,46.6,15.5,22.71,37.54,-114.47,145704,2016-03-24 12:47:36:745
-3.0526,-3.0237,2.4477,7.1722,-5.0841,-4.3454,1.7683,-2.3244,3.2343,-0.1264,-2.1208,-2.535,-6.2,44.33,22.04,33.99,37.54,-114.47,145804,2016-03-24 12:47:36:845
15.5841,-11.0826,-14.8227,5.6912,-5.8532,-5.4332,-1.6012,0.0222,-3.7348,1.187,-1.9156,0.461,-8.32,41.84,23.92,29.08,31.83,-129.09,145904,2016-03-24 12:47:36:945
6.9081,-16.3079,-3.7449,5.3724,-6.1153,-5.4691,9.6134,-7.2355,-4.2489,0.7793,-0.6187,0.881,-4.53,43.94,22.83,29.12,36.65,-133.67,146003,2016-03-24 12:47:37:044
6.9662,-13.0534,2.7194,5.0714,-7.2634,-4.2065,-9.1083,0.4563,11.0456,0.4834,1.647,1.3974,-2.96,45.26,21.38,37.46,47.79,-129.67,146103,2016-03-24 12:47:37:144
4.9905,-5.6664,-0.3165,3.8133,-8.7215,-2.359,1.122,2.1414,0.0573,0.6459,1.0074,1.5732,1.28,47.4,15.86,36.81,57.41,-124.73,146204,2016-03-24 12:47:37:245
2.9118,-8.997,-3.8012,3.5463,-9.0439,-1.3424,0.0552,1.656,3.2872,1.0483,1.299,0.6926,4.33,48.29,13.37,34.86,62.79,-121.74,146304,2016-03-24 12:47:37:345
7.9867,-8.7238,-0.7791,2.4521,-9.4947,-0.0954,2.3735,0.0795,0.9558,0.6206,0.5428,1.0441,8.54,49.75,6.13,16.82,75.51,-92.23,146407,2016-03-24 12:47:37:448
10.1135,-9.7213,-0.8108,2.2829,-9.5358,0.1628,7.3356,1.0176,-0.4093,0.5594,-0.4623,0.5213,10.89,48.85,5.41,13.43,75.51,-92.23,146504,2016-03-24 12:47:37:545
2.7873,-12.6657,2.565,3.7629,-8.7738,-2.2433,-0.7204,-5.9935,4.0544,-2.4587,-0.9717,-1.9054,10.3,49.86,3.77,14.96,72.86,-103.27,146604,2016-03-24 12:47:37:645
6.3622,-6.8678,-1.8563,4.9508,-7.8127,-3.259,-0.4484,-6.9916,3.9739,-2.0309,-0.0535,-2.2435,5.03,49.51,11.47,22.56,52.81,-123.36,146704,2016-03-24 12:47:37:745
-1.4181,-3.2687,1.7177,5.7111,-6.4626,-4.6678,-6.0971,2.6379,5.9413,0.1993,-2.0431,-1.2039,-6.95,43.24,21.04,30.59,41.22,-129.26,146804,2016-03-24 12:47:37:845
10.4481,-10.368,-12.7979,5.2989,-6.6967,-4.8214,-8.5814,3.6912,4.9159,0.984,-1.2657,-0.0188,-7.73,43.38,22.18,32.1,41.22,-129.26,146905,2016-03-24 12:47:37:946
5.748,-7.0877,-1.9385,5.0611,-7.0542,-4.56,9.7153,-1.7538,-2.6279,0.2367,0.185,-0.1083,-3.84,46.71,19.75,30.26,46,-132.02,147003,2016-03-24 12:47:38:044
0.096,-8.5712,6.7802,5.0394,-7.248,-4.271,-5.921,-6.2385,0.0682,-0.2518,1.2493,0.7338,-3.95,46.25,18.65,31.21,47.65,-130.28,147104,2016-03-24 12:47:38:145
2.5413,-8.5131,-6.2086,2.5676,-9.1447,-2.4395,3.7156,-2.3414,7.0414,0.9411,0.1808,1.501,1.39,47.55,14.37,50.23,68.83,-133.53,147203,2016-03-24 12:47:38:244
3.0841,-9.0742,-0.4906,1.8696,-9.556,-1.1656,1.7311,3.0227,4.2034,1.4675,1.1515,0.7686,6.98,49.79,8.85,38.17,72.14,-132.48,147303,2016-03-24 12:47:38:344
4.3792,-10.2572,1.68,1.261,-9.7172,-0.3959,1.9954,-0.7193,1.0089,0.5477,1.5408,1.3537,8.62,49.37,4.58,28.72,82.25,-107.43,147404,2016-03-24 12:47:38:445
8.7684,-10.4891,0.0598,0.9062,-9.7641,-0.109,11.5721,1.6848,-0.6595,0.3974,0.2296,0.4402,14.11,50.88,5.27,25.7,82.25,-107.43,147505,2016-03-24 12:47:38:546
2.3901,-12.3734,1.811,1.9705,-9.5339,-1.1799,4.3058,-3.4278,-2.1646,-2.8811,-1.4689,-2.0485,11.78,49.16,3.88,13.63,83.29,-91.23,147604,2016-03-24 12:47:38:645
7.4952,-6.7552,0.2831,5.274,-7.5864,-3.2866,-1.4939,-6.6334,2.1768,-2.841,2.1784,-2.7681,8.54,49.13,9.68,21.95,50.68,-121.93,147704,2016-03-24 12:47:38:745
-0.3705,-3.6151,0.863,6.1192,-6.5472,-3.9826,-1.0325,0.4595,4.1846,-0.9904,-0.4062,-3.273,0.17,47,18.35,27.95,41.88,-123.06,147805,2016-03-24 12:47:38:846
6.8407,-4.7685,-8.8454,5.4078,-6.7283,-4.6535,-8.9919,3.7218,4.7403,0.7679,-1.6865,-0.1822,-6.36,44.71,23.64,34.6,39.87,-128.07,147905,2016-03-24 12:47:38:946
12.924,-16.9798,-3.0618,5.2731,-7.0442,-4.3294,3.0115,-0.1567,-5.1516,1.0392,-0.286,0.7968,-5.45,44.63,23.8,41.15,45.91,-129.39,148004,2016-03-24 12:47:39:045
0.6519,-13.0676,11.5356,5.3359,-7.459,-3.4731,-9.8404,-4.4492,0.0392,0.1395,0.7967,-0.0434,-5.28,46.26,19.69,37.37,49.52,-123.06,148103,2016-03-24 12:47:39:144
5.8296,-5.5168,-1.6436,4.8936,-8.2198,-2.1582,6.3972,-4.2593,0.6077,0.7377,1.9141,2.3041,-5.71,46.46,19.53,49.17,56.95,-113.8,148204,2016-03-24 12:47:39:245
3.0655,-8.8003,1.2676,4.4729,-8.7187,-0.3845,-0.9513,0.9631,3.5099,0.3764,0.8662,0.5731,3.39,49.47,11.5,24.82,62.76,-94.91,148304,2016-03-24 12:47:39:345
8.0488,-8.0759,0.1131,4.0103,-8.9413,0.3761,-2.1543,-1.0193,-3.7976,1.2256,1.0118,0.5756,4.34,50,10.09,21.87,62.76,-94.91,148403,2016-03-24 12:47:39:444
7.4777,-11.8739,0.8959,2.9868,-9.2787,1.0753,7.0861,1.9666,-0.2737,0.527,0.1412,0.8784,9.15,50.26,6.46,5.68,71.11,-70.2,148504,2016-03-24 12:47:39:545
6.5648,-10.8965,-3.0728,3.2046,-9.2115,1.0241,3.8833,-1.9899,-0.5826,0.3381,-0.9046,-0.0622,11.54,49.77,4.88,1.29,71.11,-70.2,148604,2016-03-24 12:47:39:645
3.0738,-15.6214,0.8588,5.0964,-8.239,-1.5218,-1.345,-4.0617,2.825,-2.6382,0.0278,-1.9592,7.39,51.21,9.18,19.1,65.67,-92.85,148704,2016-03-24 12:47:39:745
5.2322,-7.47,0.0949,7.0442,-6.2259,-2.7908,0.0212,-2.213,2.3143,-0.3977,-1.365,-2.1015,-5.31,46.58,21.11,38.02,47.36,-108.06,148804,2016-03-24 12:47:39:845
-2.6934,-2.6851,0.3315,6.9301,-5.9268,-3.608,-5.5113,1.1643,3.8158,0.3672,-2.0379,-0.7644,-7.93,44.53,23.69,35.28,37.18,-117.5,148904,2016-03-24 12:47:39:945
10.2634,-8.0447,-9.8237,6.3924,-6.5198,-3.5777,7.3989,-1.9576,-4.8241,0.6518,0.0654,0.5756,-5.1,46.2,22.61,33.98,38.97,-120.16,149004,2016-03-24 12:47:40:045
3.4803,-18.7564,-11.5308,6.3493,-6.7925,-3.1175,0.9238,-4.7668,-0.7385,0.7963,0.3325,0.0597,-3,47.33,20.27,30.75,41.67,-119.23,149104,2016-03-24 12:47:40:145
1.5001,-7.9561,8.0728,5.4298,-8.0397,-1.4321,-4.2328,0.5143,8.7114,1.4461,1.4144,1.7021,-3.23,47.93,19.57,41.59,55.07,-104.78,149203,2016-03-24 12:47:40:244
3.5802,-7.1786,1.8479,4.5979,-8.6372,-0.6548,3.3486,-1.8102,-3.0405,0.6955,0.1779,1.6066,-1.05,50.24,15.58,37.02,61.73,-98.11,149303,2016-03-24 12:47:40:344
2.8987,-8.4973,0.9991,3.604,-9.081,0.8465,-0.9858,1.045,0.7523,1.226,0.7706,0.8647,5.13,52.41,10.72,19.87,67.82,-76.78,149404,2016-03-24 12:47:40:445
9.5392,-7.8832,-0.8731,2.8603,-9.2682,1.4458,0.8442,0.912,-3.4084,0.4444,1.2714,1.2446,7.86,51.44,7.99,11.95,67.82,-76.78,149504,2016-03-24 12:47:40:545
5.6088,-12.6976,0.4724,2.245,-9.354,1.9061,9.3344,2.2691,-1.913,0.3665,-1.1132,0.2327,14.01,51.02,5.55,352.39,73.04,-52.08,149603,2016-03-24 12:47:40:644
5.448,-11.2488,-4.3807,2.8364,-9.3408,0.9353,3.8538,-2.1961,-1.6403,-2.5278,-1.3233,-1.5752,13.16,50.23,5.55,3.24,72.27,-71.75,149704,2016-03-24 12:47:40:745
4.9522,-15.4607,0.2495,5.497,-7.9749,-1.5343,-0.2927,-6.6153,1.5035,-1.391,0.3645,-3.083,1,47.3,20.03,39.42,54.41,-105.6,149804,2016-03-24 12:47:40:845
-1.5273,-3.7385,1.7188,6.5327,-6.9684,-2.2218,-1.189,-0.1979,2.4001,-1.391,0.3645,-3.083,1,47.3,20.03,39.42,54.41,-105.6,149904,2016-03-24 12:47:40:945
-4.2356,-1.811,-0.7636,6.2823,-6.8674,-3.089,-9.8457,4.3593,3.7697,0.8396,-2.0536,-0.4371,-4.78,44.65,24.31,39.85,42.07,-114.48,150004,2016-03-24 12:47:41:045
5.9248,-6.5282,-1.6836,6.0007,-7.1746,-2.9474,0.0295,0.4113,-5.8395,1.165,-0.3465,0.7249,-3.49,46,22.61,41.33,47.02,-116.16,150103,2016-03-24 12:47:41:144
0.3321,-9.6254,0.942,5.9444,-7.3514,-2.6063,-6.0015,-5.4804,-2.7385,0.5941,0.0896,-0.2382,-1.15,48.15,20.11,34.19,46.76,-114.36,150204,2016-03-24 12:47:41:245
5.1469,-10.8327,1.9578,4.276,-8.8044,-0.6068,-0.7268,-1.4954,5.3036,1.359,1.4668,2.0831,1.56,48.46,18.3,36.4,55.01,-111.05,150305,2016-03-24 12:47:41:346
2.0349,-8.1803,4.2105,3.7658,-9.052,0.2226,2.9356,-0.3947,-2.2097,1.1653,2.0939,1.3385,4.86,49.38,13.77,29.46,67.38,-86.62,150403,2016-03-24 12:47:41:444
2.5506,-8.8763,-2.7807,2.8696,-9.2622,1.4656,0.3712,0.1316,-2.3699,1.068,0.8622,0.8365,8.95,50.86,10.97,11.1,70.82,-62.94,150504,2016-03-24 12:47:41:545
10.5758,-6.5605,-1.7283,2.2619,-9.4136,1.5612,7.1332,1.8016,-2.1922,-0.0313,1.0137,1.0821,11.3,50.75,8.23,0.7,73.72,-55.39,150603,2016-03-24 12:47:41:644
8.0281,-11.5547,-4.0568,2.622,-9.3904,1.0562,5.6602,-1.811,-3.6721,-0.3646,-1.4207,-0.4128,16.08,49.95,6.44,359.23,73.25,-68.06,150704,2016-03-24 12:47:41:745
1.1586,-16.2637,-1.2051,3.6196,-9.1032,-0.4474,1.2916,-2.2851,0.471,-2.1055,-1.0702,-1.6451,15.33,49.75,5.94,359.92,73.25,-68.06,150803,2016-03-24 12:47:41:844
6.1277,-7.7338,-0.3523,5.6937,-7.5265,-2.6652,0.9574,-3.0925,3.7112,-1.5444,-0.4785,-2.0617,6.74,50.69,15.76,28.35,50.13,-115.08,150904,2016-03-24 12:47:41:945
-2.5024,-2.7748,1.2796,6.0428,-6.894,-3.4826,-2.3301,0.8041,3.5429,-0.0677,-1.9996,-1.5691,0.36,49.53,19.04,33.63,50.13,-115.08,151003,2016-03-24 12:47:42:044
7.2239,-7.9323,-9.8712,5.4334,-7.3358,-3.5825,-8.2011,4.5799,3.1296,0.8563,-0.2399,0.6044,-2.72,51.87,14.39,20.48,48.42,-123.4,151104,2016-03-24 12:47:42:145
4.9881,-16.865,-6.2105,5.3203,-7.5196,-3.3645,4.4291,-1.0004,-6.5347,0.6164,-0.1587,0.091,-1.25,53.7,10.16,14.82,50.07,-122.31,151204,2016-03-24 12:47:42:245
-2.7957,-7.5074,7.4597,5.1257,-7.9217,-2.6729,-9.1886,1.4342,8.1995,-0.0237,1.2034,1.5031,-7.91,54.19,0.81,354.02,49.48,-119.6,151304,2016-03-24 12:47:42:345
6.7432,-6.2269,-4.7909,4.2034,-8.6882,-1.7369,2.1755,-2.4295,6.1505,1.538,0.6211,1.8341,-6.91,55.82,-6.3,339.74,62.37,-112.45,151403,2016-03-24 12:47:42:444
2.5717,-8.878,2.0241,3.4055,-9.1672,-0.7323,-0.0214,1.8562,3.4857,0.7011,0.935,0.2531,-0.86,54.61,-14.3,330.76,67.28,-107.96,151504,2016-03-24 12:47:42:545
5.0427,-8.1662,3.2018,3.1188,-9.296,-0.1686,0.3703,0.0643,-1.5905,0.5548,0.6197,0.7398,-0.8,53.09,-16.85,314.62,71.43,-93.09,151605,2016-03-24 12:47:42:646
10.2804,-6.7149,-0.1265,1.9295,-9.5883,0.7153,4.709,0.9454,-1.0581,0.4489,0.1808,0.8085,0.05,49.71,-20.99,296.09,75.19,-82.69,151703,2016-03-24 12:47:42:744
6.8101,-12.8225,-6.575,2.3277,-9.5217,0.2975,6.8842,-1.221,1.5016,-1.8414,-1.4858,-1.0878,-3.6,43.71,-15.29,266.07,77.83,-63.33,151804,2016-03-24 12:47:42:845
1.9927,-14.5885,0.4798,3.2077,-9.1765,-1.2935,1.7802,-2.9863,-2.9245,-2.5693,-0.1505,-1.8538,-6.66,43.37,-3.19,331.96,69.35,-111.96,151904,2016-03-24 12:47:42:945
5.5222,-6.9957,0.1054,5.2364,-7.5532,-3.4205,-0.7119,-5.2959,4.1153,-2.4039,0.4258,-1.9282,-8.12,40.64,5.88,25.4,69.35,-111.96,152003,2016-03-24 12:47:43:044
-1.7659,-4.0793,1.2493,5.4855,-6.9267,-4.2545,-4.7521,1.267,5.3039,-0.5035,-1.6986,-2.2149,-10.39,39.07,11.19,8.45,44.94,-127.8,152105,2016-03-24 12:47:43:146
9.8369,-7.2657,-8.4766,4.8754,-7.154,-4.6067,-1.0717,2.9586,-0.9326,0.9103,-1.2494,-0.0879,-11.72,36.65,18.22,24.22,44.57,-132.31,152204,2016-03-24 12:47:43:245
6.5241,-11.0998,-2.3564,4.681,-7.3481,-4.5015,6.7991,0.6405,-5.0382,0.8565,-0.4599,0.2972,-9.79,38.03,17.63,30.12,48.53,-133.88,152303,2016-03-24 12:47:43:344
0.2071,-6.1428,7.1007,4.6591,-7.811,-3.6676,-2.5353,-3.8971,0.2552,0.3016,1.3403,0.1994,-7.63,39.55,15.21,30.12,52.8,-128.21,152404,2016-03-24 12:47:43:445
7.8106,-8.8422,-2.8252,3.9456,-8.5155,-2.8441,-1.5604,0.4085,8.749,0.2888,1.1872,1.6745,-8.13,39.89,13.83,43.27,60.27,-125.78,152504,2016-03-24 12:47:43:545
4.0684,-7.9461,-2.3311,3.0493,-9.23,-1.296,1.703,1.3448,1.8016,1.1781,-0.5776,0.5196,-2.35,44.82,7.27,27.45,70.25,-113.03,152604,2016-03-24 12:47:43:645
4.1473,-9.352,-0.1131,2.83,-9.3829,-0.3492,1.0479,1.2375,-1.0567,1.3914,0.7739,0.3419,-0.28,45.38,4.22,17.47,73.1,-97.03,152704,2016-03-24 12:47:43:745
6.9536,-9.573,0.3081,1.9545,-9.5709,0.8648,3.2991,0.5643,-0.9149,0.7393,0.6297,0.7392,1.65,45.58,-1.87,346.54,77.41,-66.13,152804,2016-03-24 12:47:43:845
10.4604,-12.8731,-0.9264,1.9203,-9.594,0.6618,7.6987,-1.7475,-1.9039,-0.4587,-0.7671,0.0027,4.57,45.58,-3.49,340.29,77.41,-66.13,152904,2016-03-24 12:47:43:945
2.0677,-13.599,0.7155,2.6703,-9.4166,-0.6068,4.7098,-0.7208,0.3768,-1.6789,-1.3865,-1.1237,4.82,46.4,-3.85,337.21,78.05,-70.98,153015,2016-03-24 12:47:44:056
1.6539,-8.7043,2.5952,4.3651,-8.3023,-2.8614,-0.1398,-0.2865,4.5823,-1.3003,-1.097,-1.8781,-1.41,46.33,6.37,12.02,57.84,-123.25,153104,2016-03-24 12:47:44:145
0.744,-4.3909,1.3603,5.0445,-7.5401,-3.7242,0.3867,0.3441,3.4253,-0.7326,-1.5977,-1.9249,-4.96,45.71,9.79,13.13,50.25,-126.44,153204,2016-03-24 12:47:44:245
-1.7562,-1.7853,2.0563,5.0727,-7.1799,-4.346,-4.1009,2.5706,5.474,0.0542,-1.8981,-1.0399,-8.6,44.91,12.64,11.66,47.07,-130.59,153304,2016-03-24 12:47:44:345
16.5303,-12.594,-10.7563,3.9932,-8.0963,-3.8307,-6.2457,4.9146,2.5324,1.42,-0.6086,1.1816,-7.68,45.24,12.86,16.24,55.65,-133.81,153405,2016-03-24 12:47:44:446
3.1125,-15.6523,-9.0614,3.9392,-8.2487,-3.5512,3.9861,-0.8619,0.8256,-0.3284,-0.107,-0.2339,-4.13,48.16,6.45,4.97,58.55,-133.02,153505,2016-03-24 12:47:44:546
-2.2181,-7.9328,6.2937,3.5023,-8.5225,-3.3572,-2.1307,-6.4043,-2.4257,0.4771,0.9474,1.4194,-3.98,47.42,6.59,7.57,57.26,-132.04,153604,2016-03-24 12:47:44:645
5.6146,-5.3383,-3.0156,2.2011,-9.4764,-1.234,3.7758,2.6467,-1.5008,1.5177,0.3982,0.427,5.74,48.68,-1.6,3.66,75.09,-119.28,153704,2016-03-24 12:47:44:745
3.0714,-9.2684,-0.4644,2.0804,-9.5766,-0.3619,-0.1773,0.8036,0.7746,1.2838,0.2592,0.2725,8.9,48.5,-6.21,347.8,77.57,-99.87,153809,2016-03-24 12:47:44:850
7.4467,-9.0674,-1.197,1.3364,-9.6939,0.6422,2.5695,-0.0524,0.6707,0.6699,0.8321,0.8083,11.46,46.51,-9.53,328.58,79.46,-83.66,153904,2016-03-24 12:47:44:945
8.2741,-9.4742,3.0639,1.2267,-9.6782,0.999,8.2025,1.8293,-1.5608,0.5757,-1.1342,0.0813,13.32,46.42,-10.72,302.13,80.72,-50.84,154005,2016-03-24 12:47:45:046
5.7884,-10.8179,0.7036,2.4376,-9.4619,-0.8372,2.3196,-2.1365,-4.8753,-2.4406,-1.3919,-1.8015,8.76,48.74,-9.22,319.48,79.75,-68.29,154105,2016-03-24 12:47:45:146
3.6795,-9.4904,-0.4774,3.5006,-8.9079,-2.1366,0.6666,-4.5627,3.9716,-2.4406,-1.3919,-1.8015,8.76,48.74,-9.22,319.48,79.75,-68.29,154204,2016-03-24 12:47:45:245
0.3667,-4.2962,0.8376,5.4601,-7.3652,-3.4802,-1.556,-0.9192,2.9423,-1.0588,-0.2803,-2.3264,-3.97,50.48,1.43,357.51,48.68,-122.51,154304,2016-03-24 12:47:45:345
-3.6093,-5.2411,-8.9555,4.9833,-7.5122,-3.8605,-1.1047,2.7773,-3.2168,0.7641,-1.2081,0.0214,-12.53,47.94,7.23,355.02,47.16,-125.73,154404,2016-03-24 12:47:45:445
10.8102,-5.3377,-1.6593,4.897,-7.6914,-3.6099,10.2896,0.1737,-2.9112,0.7813,-0.3632,0.8281,-11.72,47.03,6.83,355.36,51.66,-126.4,154504,2016-03-24 12:47:45:545
7.8974,-16.5678,-3.3736,4.157,-8.7304,-1.6336,1.9614,-4.6069,1.8013,1.8131,1.1911,1.2318,-9.06,50.33,4.09,354.84,51.66,-126.4,154604,2016-03-24 12:47:45:645
3.791,-10.7461,1.9576,3.2475,-9.2053,-0.942,-2.8159,1.2768,3.8363,0.6343,1.0213,1.5667,-8.41,50.43,0.58,352.81,62.91,-111.45,154705,2016-03-24 12:47:45:746
2.3079,-5.174,-1.2829,2.505,-9.4809,-0.0852,2.2574,-1.4387,1.1763,1.3573,-0.1864,1.3893,-5.08,51.01,-1.62,345.3,75.19,-91.95,154804,2016-03-24 12:47:45:845
3.7036,-8.0271,0.2588,1.8265,-9.5768,1.058,0.7727,0.8264,0.1584,0.6222,0.8142,0.3288,2.23,50.2,-9.09,319.77,76.87,-74.45,154904,2016-03-24 12:47:45:945
11.2601,-7.9585,-2.3836,0.6857,-9.5803,1.9793,5.9377,1.0043,-1.5484,0.7845,0.7573,0.878,8.6,48.92,-11.86,280.34,77.67,-19.11,155003,2016-03-24 12:47:46:044
10.5677,-9.8421,-1.7509,0.9061,-9.5265,2.1438,8.9768,1.5341,-2.3152,0.4148,-0.9167,0.1821,12.01,46.87,-13.89,273.43,77.67,-19.11,155103,2016-03-24 12:47:46:144
1.642,-15.9921,3.8333,2.9143,-9.3565,-0.3644,-1.8299,-6.9302,3.032,-2.6279,-0.3322,-1.9429,7.82,48.87,-13.8,331.65,72.57,-97.13,155204,2016-03-24 12:47:46:245
6.1958,-6.1172,0.6621,4.8245,-8.4466,-1.2448,2.7218,-2.9482,0.4764,-2.0004,0.7287,-3.1002,0.63,50.62,-6.47,348.78,59.46,-104.47,155303,2016-03-24 12:47:46:344
-2.3378,-3.9312,2.3603,6.2299,-7.0554,-2.7531,-7.5025,2.9179,4.8168,0.7194,-2.5253,-1.0292,-14.28,48.06,2.1,353.31,48.89,-108.2,155404,2016-03-24 12:47:46:445
13.8269,-9.8885,-12.7955,5.9309,-7.3777,-2.5619,-9.686,4.1999,2.809,1.3037,-0.7548,0.3135,-17.4,46.18,2.99,348.28,46.01,-113.84,155504,2016-03-24 12:47:46:545
5.0882,-12.3557,0.6545,5.9244,-7.6107,-1.7743,9.2606,-2.1501,-3.0639,0.5464,0.8338,-0.3495,-14.85,47.91,-0.12,347.31,50.9,-106.67,155609,2016-03-24 12:47:46:650
4.0532,-11.7332,5.4477,5.5867,-7.9599,-1.2647,-4.5879,-6.6283,-3.8417,0.05,1.1918,1.1817,-16.53,48.02,-0.7,341.9,50.9,-106.67,155704,2016-03-24 12:47:46:745
3.8484,-8.2549,-3.4134,3.5053,-9.1311,0.7119,2.8488,-2.7742,-0.1194,0.7822,0.9563,1.7198,-7.5,49.36,-8.16,333.6,62.42,-93.31,155804,2016-03-24 12:47:46:845
4.6901,-8.6904,-0.5497,2.8558,-9.3253,1.0265,1.4485,1.5165,-3.9845,0.3679,0.8597,0.6473,-3.63,49.97,-10.27,324.74,68.61,-78.52,155904,2016-03-24 12:47:46:945
8.3531,-7.0023,-0.6336,1.7481,-9.3068,2.5492,2.6114,0.7635,-2.3011,0.2879,1.4826,1.2307,2.31,48.16,-14.88,302.18,71.38,-53.07,156003,2016-03-24 12:47:47:044
4.4441,-11.7992,-0.1252,1.2973,-9.3231,2.7509,5.9142,-1.1206,-2.8742,0.112,-1.6765,0.0262,9.43,45.93,-17.06,282.1,71.93,-25.25,156103,2016-03-24 12:47:47:144
2.8262,-15.2823,4.5787,2.1874,-9.4242,1.603,5.9594,-1.6151,-5.4596,-2.6396,-1.6411,-1.8246,5.12,47.37,-18.09,290.83,73.95,-53.77,156204,2016-03-24 12:47:47:245
12.1429,-11.0691,3.0136,4.938,-8.4466,-0.6646,0.3243,-5.5316,0.2645,-2.7233,1.5932,-1.9564,0.36,48.62,-12.44,323.93,70.27,-89.67,156304,2016-03-24 12:47:47:345
-1.14,-3.9878,2.5539,6.2415,-7.4529,-1.292,1.2273,0.0073,1.1058,-0.8144,0.0597,-3.6232,-5.45,51.85,-4.09,350.87,49.46,-101.7,156404,2016-03-24 12:47:47:445
-0.3101,-3.5444,-4.1489,6.1965,-7.3816,-1.813,-9.5958,4.5119,3.3625,1.2296,-2.2278,-0.3809,-19.23,44.89,3.02,350.86,48.83,-106.31,156504,2016-03-24 12:47:47:545
16.3098,-10.5027,-4.9875,5.8551,-7.7215,-1.5056,-5.1807,3.3464,-3.2129,1.3195,0.0625,0.8312,-18.76,44.9,2.31,347.74,51.94,-104.42,156607,2016-03-24 12:47:47:648
-2.1661,-10.895,3.8689,5.7616,-7.8887,-0.8622,-1.7998,-1.8586,1.4382,0.6498,0.6936,-0.1761,-16.73,46.72,-0.45,350.09,53.55,-98.51,156704,2016-03-24 12:47:47:745
8.099,-9.9026,0.1756,4.8583,-8.5185,0.053,-1.1173,-1.4087,7.0836,-0.067,1.1367,1.5981,-16.91,45.61,-1.71,342.25,53.55,-98.51,156804,2016-03-24 12:47:47:845
3.1866,-6.7776,1.5413,2.9639,-9.2511,1.3424,1.3156,2.2807,-0.0372,0.3942,0.7933,1.5963,-4.83,48.18,-9.93,324.95,66.98,-75.43,156904,2016-03-24 12:47:47:945
2.7906,-8.1214,-0.3924,2.532,-9.2206,2.1773,1.764,1.529,1.1506,0.6957,1.1238,0.4587,-2.35,47.8,-11.91,313.34,70.62,-65.63,157004,2016-03-24 12:47:48:045
8.2082,-7.8108,-2.9074,1.0535,-9.3137,2.8837,4.5029,0.8745,-2.5143,0.136,0.9859,1.0704,2.84,47.05,-13.96,292.79,71.76,-20.07,157104,2016-03-24 12:47:48:145
8.9641,-9.9768,-0.9963,0.9684,-9.294,2.9755,10.5622,1.3712,-4.1526,0.2974,-0.1539,0.6508,6.96,46.55,-13.61,291.6,71.76,-20.07,157203,2016-03-24 12:47:48:244
0.8441,-17.0501,3.6289,2.996,-9.3026,0.8102,2.1833,-5.5161,-2.8255,-2.2184,-0.5708,-1.8821,2.97,46.56,-14.37,296.37,72.52,-38.82,157304,2016-03-24 12:47:48:345
4.9799,-7.6647,0.4381,4.3596,-8.781,-0.2391,-3.8033,-8.5512,1.4014,-2.159,0.47,-2.4633,-1.36,47.75,-7.02,341.31,63.56,-93.14,157404,2016-03-24 12:47:48:445
-2.3226,-3.3019,2.2048,6.0941,-7.404,-2.0529,-3.4852,1.6872,2.8476,0.2044,-2.5778,-1.3024,-13.17,46.24,1.76,358.11,53.66,-101.14,157504,2016-03-24 12:47:48:545
13.8638,-10.8903,-13.379,5.5682,-7.825,-1.9835,6.3288,-0.9439,-9.281,1.0441,-1.3405,0.0841,-16.54,44.41,4.62,357.45,49.02,-108.62,157604,2016-03-24 12:47:48:645
9.1357,-17.8303,-5.3772,5.5971,-7.7937,-2.0249,6.5604,-3.9034,-3.6683,0.2847,-0.4397,-0.2369,-14.95,45.9,4.28,355.3,52.93,-109.61,157703,2016-03-24 12:47:48:744
-8.4858,-0.0733,9.2539,4.2313,-8.829,-0.5606,-7.6511,1.0773,10.8248,-0.0686,0.7397,0.8691,-16.31,45.08,3.45,349.78,52.63,-109.89,157804,2016-03-24 12:47:48:845
3.4703,-7.4374,0.0015,2.9463,-9.3392,0.5186,8.6979,-0.4799,-4.842,1.0943,0.991,2.2631,-8.78,45.93,-2.68,344.7,72.24,-80.02,157903,2016-03-24 12:47:48:944
7.837,-5.5757,0.639,1.2318,-9.5714,1.744,5.1949,2.1795,-0.2352,1.3214,0.7149,0.6849,1.22,47.24,-7.55,313.28,77.8,-61.56,158003,2016-03-24 12:47:49:044
3.8121,-8.5874,0.7919,0.8632,-9.5136,2.2174,3.7905,1.9579,-4.5962,0.3878,0.7625,0.5756,4.18,46.87,-9.73,297.15,75.96,-21.27,158104,2016-03-24 12:47:49:145
8.0111,-7.3966,-1.0355,-0.1167,-9.4581,2.5885,7.9463,1.7073,-2.7997,0.2737,-0.0669,0.6129,9.65,45.64,-12.83,265.1,74.68,2.58,158204,2016-03-24 12:47:49:245
6.7491,-11.5614,-2.9903,0.1553,-9.4721,2.5347,7.4144,0.744,-3.4935,-0.2009,-1.3095,-0.4722,9.72,44.5,-13.73,262.05,74.99,-3.51,158304,2016-03-24 12:47:49:345
2.0814,-15.9409,-0.6848,2.4038,-9.5074,-0.0304,-0.2853,-6.5076,0.9369,-2.4552,1.1381,-2.1632,3,49.41,-8.24,332.07,75.81,-90.72,158403,2016-03-24 12:47:49:444
2.886,-5.789,0.1634,3.9994,-8.923,-0.7449,2.5016,-3.0224,1.0156,-0.5849,-0.1856,-3.0215,-4.52,47.97,-2.3,343.45,75.81,-90.72,158504,2016-03-24 12:47:49:545
-2.4651,-2.9064,1.8826,5.4111,-7.983,-1.778,-6.4969,3.8211,3.773,0.4814,-2.7486,-1.5137,-11.3,47.01,-1.37,347.04,54.49,-108.19,158605,2016-03-24 12:47:49:646
17.7936,-9.3456,-9.5927,5.1023,-8.2549,-1.4118,-9.4238,5.7007,2.1208,0.976,-2.1407,-0.2512,-14.56,43.54,1.41,345.03,57.33,-105.47,158705,2016-03-24 12:47:49:746
6.4745,-17.4967,-9.3569,5.0663,-8.3438,-0.9398,9.9326,-2.4464,-2.282,0.027,0.2023,0.2748,-14.44,44.45,-1.97,334.91,60.13,-102.02,158804,2016-03-24 12:47:49:845
5.4348,-12.889,6.4262,4.8106,-8.5027,-0.8564,-2.8174,-5.3569,-3.7124,-0.0583,0.5327,-0.621,-13.23,44.9,-3.29,338.1,58.3,-100.51,158904,2016-03-24 12:47:49:945
5.572,-6.7457,-3.6411,2.9864,-9.3258,0.5296,3.6973,-3.4951,-0.7116,1.4593,0.4287,1.441,-8.14,46.82,-7.02,326.72,67.22,-91.63,159003,2016-03-24 12:47:50:044
2.481,-10.8431,-8.3805,2.1539,-9.4427,1.5383,0.735,-0.2571,-4.2724,1.005,0.4938,0.441,-0.01,47.22,-11.8,301.44,74.34,-54.47,159104,2016-03-24 12:47:50:145
6.2125,-8.2249,-0.8468,1.4743,-9.4163,2.3086,2.3765,0.8987,-1.1262,1.2791,1.2201,0.7264,1.96,46.19,-14.07,285.48,73.78,-32.56,159204,2016-03-24 12:47:50:245
7.6035,-9.9037,-1.4644,0.8605,-9.4497,2.4767,6.38,1.309,-1.9555,0.0988,-0.3968,0.5208,10.39,45.03,-18.15,267.52,74.38,-20.76,159304,2016-03-24 12:47:50:345
3.481,-13.6713,-0.8118,1.6148,-9.4819,1.9123,7.1423,-0.0118,-3.037,-0.5158,-1.0638,-0.6056,11.14,43.46,-18.25,265.06,74.49,-19.16,159404,2016-03-24 12:47:50:445
11.4731,-8.8843,-0.1076,3.8935,-8.9998,-0.1217,-2.9573,-6.714,-0.6459,-2.0457,1.0986,-2.0212,2.35,46.59,-12.73,312.92,73.04,-74.06,159504,2016-03-24 12:47:50:545
0.9888,-6.1327,0.4622,5.1536,-8.3225,-0.5881,3.3274,-1.2914,0.4308,-1.126,0.4232,-2.1109,-4.93,46.94,-7.02,340.56,58.07,-96.51,159605,2016-03-24 12:47:50:646
-2.4541,-3.1581,-0.4276,5.8123,-7.8013,-1.2359,-6.4364,3.2528,2.6551,0.9812,-1.52,-0.1891,-15.1,43.65,-2.4,341.67,52.7,-102,159704,2016-03-24 12:47:50:745
15.996,-7.9928,-9.6102,5.411,-8.1581,-0.5806,-7.7843,4.9618,0.8582,1.161,0.2239,0.7355,-15.76,42.03,-3.52,331.41,56.29,-96.12,159804,2016-03-24 12:47:50:845
9.6413,-18.9281,-12.4107,4.946,-8.4585,0.402,-11.0814,0.2773,0.0038,1.4164,0.2648,0.7799,-14.54,44.1,-8.47,323.44,56.96,-92.77,159904,2016-03-24 12:47:50:945
-5.5102,-3.5272,8.0234,4.4586,-8.7005,0.7697,6.9437,-7.5553,-6.9459,0.3243,0.0549,0.7172,-13.47,43.47,-12.28,304.72,62.52,-80.21,160004,2016-03-24 12:47:51:045
4.5224,-3.6375,1.5946,3.0382,-9.1646,1.7175,3.1741,-4.8241,1.3852,0.7433,2.4123,0.6202,-8.62,44.59,-12.99,291.51,69.15,-60.52,160104,2016-03-24 12:47:51:145
1.6156,-10.403,-5.517,2.482,-9.1466,2.5197,1.838,4.4493,-1.8078,0.4704,2.5372,0.3691,-6.37,43.58,-14.5,295.43,68.86,-44.57,160203,2016-03-24 12:47:51:244
13.3396,-4.0093,1.861,0.9833,-9.3652,2.738,2.3219,1.4087,-2.5368,-0.2487,1.5553,1.0955,2.66,42.34,-18.66,248.46,72.74,-19.76,160303,2016-03-24 12:47:51:344
10.0479,-9.1942,-0.6573,0.645,-9.3859,2.7674,10.4645,3.38,-1.7793,0.236,0.3709,0.2091,8.72,42,-17.68,258.34,73.16,-13.12,160405,2016-03-24 12:47:51:446
1.8036,-16.5751,6.0465,2.0565,-9.503,1.2785,8.8157,-0.3423,-2.2641,-2.925,-1.9618,-1.7654,4.77,43.33,-16.94,289.46,75.7,-58.13,160504,2016-03-24 12:47:51:545
12.6264,-10.2127,3.329,4.7236,-8.5504,-0.8656,-3.1014,-7.6993,-0.9118,-0.4939,-1.2169,-3.4883,-3.32,46.07,-4.54,337.48,70.88,-95.25,160604,2016-03-24 12:47:51:645
-2.2092,-3.648,2.9432,5.8944,-7.6641,-1.6397,-4.8557,2.6042,2.6689,-0.4939,-1.2169,-3.4883,-3.32,46.07,-4.54,337.48,70.88,-95.25,160704,2016-03-24 12:47:51:745
-6.3144,-2.5503,-0.8262,5.5118,-7.987,-1.4136,-10.0539,4.6865,-0.3344,1.4846,-1.8003,-0.0309,-17.87,42.07,1.61,343.76,49.46,-109.24,160804,2016-03-24 12:47:51:845
19.2673,-10.0828,-5.1869,5.2513,-8.245,-0.7836,10.7101,-2.8382,-9.4109,1.4057,1.6051,1.6204,-17.43,39.86,-1.55,329.99,57.22,-98.49,160905,2016-03-24 12:47:51:946
4.8714,-14.4572,13.0163,4.4914,-8.7096,-0.3765,-17.4454,6.5718,8.4937,-0.8154,0.7073,0.2321,-14.31,41.97,-6.06,315.83,62.64,-94.79,161004,2016-03-24 12:47:52:045
6.0051,-6.2503,-1.0943,3.247,-9.2462,0.368,6.7084,-6.6046,4.389,0.8853,2.3754,2.703,-12.3,43.26,-7.04,292.69,70.54,-83.53,161103,2016-03-24 12:47:52:144
3.318,-8.0723,-1.8866,2.3187,-9.507,0.6418,4.412,2.799,3.6918,-0.2629,0.9514,0.6868,1.82,46.3,-11.27,312.79,75.8,-74.53,161204,2016-03-24 12:47:52:245
4.8932,-7.9332,1.5087,1.8561,-9.564,1.1202,1.8959,0.7449,-2.5158,0.9242,2.4231,0.4159,3.03,45.98,-11.85,299.27,77.23,-58.89,161304,2016-03-24 12:47:52:345
8.3616,-9.6557,1.2049,0.7818,-9.7068,1.1564,8.1989,2.6059,0.6235,0.2088,-0.0398,1.0086,9.7,44.9,-13.08,289.75,81.11,-48.61,161404,2016-03-24 12:47:52:445
3.157,-10.8713,-0.8345,2.2695,-9.5363,-0.279,0.0294,-3.2743,-0.0127,-1.4896,-0.7298,-1.5674,10.15,45.41,-13.97,329.83,76.52,-97.01,161504,2016-03-24 12:47:52:545
7.8439,-11.6487,0.6132,3.4646,-9.0101,-1.728,-2.3741,-8.2848,-0.8005,-2.8076,0.8098,-1.9712,4.7,47.61,-9.19,334.03,76.52,-97.01,161603,2016-03-24 12:47:52:644
1.3782,-5.0604,0.7265,5.4487,-7.4433,-3.3286,-2.7961,1.5841,3.7154,-0.5784,-1.334,-1.8703,-4.17,49.24,3.23,1.8,56.23,-118.5,161705,2016-03-24 12:47:52:746
-2.2331,-2.2913,-2.3991,5.24,-7.411,-3.7134,-6.918,3.8448,4.3916,0.283,-1.5013,-0.348,-9.29,48.19,5.65,359.24,49.09,-125.32,161804,2016-03-24 12:47:52:845
18.0059,-6.38,-5.5676,4.7233,-7.8654,-3.4636,-6.8444,5.2326,1.0903,0.741,-0.2309,0.834,-11.08,47.76,7.22,357.3,53.33,-126.25,161904,2016-03-24 12:47:52:945
-5.6295,-2.4765,4.9562,4.8284,-7.9213,-3.1797,5.6936,-2.9708,1.2108,-0.2139,-0.0945,-0.2668,-7.64,50.25,2.29,353.29,53.88,-123.37,162004,2016-03-24 12:47:53:045
10.0324,-12.2426,1.226,3.7223,-8.7021,-2.5666,-4.7615,3.633,9.9221,0.8141,1.2267,1.3226,-4.19,48.53,2.16,358.02,56.12,-127.13,162105,2016-03-24 12:47:53:146
4.9569,-7.3175,4.6487,3.2184,-9.0041,-2.1769,5.929,-2.6522,0.0505,0.2573,-0.22,1.127,0.51,49.58,-0.96,359.4,62.54,-124.59,162205,2016-03-24 12:47:53:246
0.5356,-9.4733,-3.0587,2.4363,-9.4293,-1.1505,-1.4479,-0.5131,-2.2393,0.8436,0.4616,0.6304,5.99,50.1,-3.12,359.57,74.05,-115.28,162304,2016-03-24 12:47:53:345
7.6071,-7.2997,-1.5232,1.9366,-9.592,-0.6425,1.7344,0.196,1.5662,0.5801,0.9308,1.0535,8.58,49.21,-5.73,352.02,77.99,-108.35,162403,2016-03-24 12:47:53:444
6.4718,-9.7795,-3.3458,1.3153,-9.7104,-0.3843,6.4146,0.662,0.4934,-0.0247,-0.0868,0.5477,14.84,47.59,-6.85,353.74,81.97,-106.29,162503,2016-03-24 12:47:53:544
2.8808,-15.7873,-1.9057,1.6768,-9.6067,-1.0343,5.6714,0.3325,-2.1926,-1.4296,-1.4636,-1.3055,14.54,46.89,-6.5,353.7,81.97,-106.29,162604,2016-03-24 12:47:53:645
9.9722,-8.2858,-0.2322,4.3368,-8.1981,-3.1864,-4.4563,-9.0164,3.4288,-2.0641,1.5278,-2.8066,3.22,47.8,5.42,18.94,68.43,-130.29,162704,2016-03-24 12:47:53:745
-1.4721,-5.6809,1.2371,5.6513,-7.1555,-3.6099,3.3321,-2.2838,2.9957,0.2297,-1.9732,-2.4853,-3.5,48.12,8.82,14.28,56.72,-126.31,162803,2016-03-24 12:47:53:844
-2.9353,-2.0685,-0.6695,5.3277,-7.061,-4.2341,-6.9716,2.5248,5.4807,0.9731,-2.8242,-0.8346,-9.15,46.42,8.91,3.63,46.06,-128.48,162904,2016-03-24 12:47:53:945
16.9366,-8.9,-5.9449,4.9975,-7.5965,-3.6726,-6.756,4.747,1.9619,1.381,-0.0876,0.8474,-9.33,45.61,9.89,8.22,50.77,-126.31,163006,2016-03-24 12:47:54:047
-0.3565,-8.4438,-3.0121,5.0791,-7.5595,-3.6369,-0.3584,-8.2907,-1.9445,0.4307,-1.2778,-0.6295,-6.9,47.03,6.02,2.01,50.43,-125.6,163104,2016-03-24 12:47:54:145
6.0696,-11.799,6.7513,3.675,-8.637,-2.8403,2.8011,-3.4051,7.0742,0.0617,1.1843,2.4634,-6.77,45.88,2.14,353.06,54.01,-127.05,163204,2016-03-24 12:47:54:245
5.6679,-6.0868,3.7248,2.9831,-9.0107,-2.4656,4.3282,0.5914,-1.6836,1.1067,-0.0273,1.4282,0.16,47.35,0.53,2.46,66.76,-129.57,163304,2016-03-24 12:47:54:345
1.8518,-9.8622,-0.0586,2.4958,-9.4297,-1.0107,-1.1578,-0.4143,-1.2592,1.3761,0.8274,0.2601,6.08,45.75,-2.8,358.41,74.06,-112.05,163404,2016-03-24 12:47:54:445
7.5054,-8.0872,-1.4774,1.8382,-9.6188,-0.5197,1.2415,-0.0653,1.1377,0.6576,0.5472,1.0972,6.51,45.09,-5.47,354.38,74.06,-112.05,163504,2016-03-24 12:47:54:545
7.3079,-13.8015,-1.3173,1.4929,-9.6894,0.238,7.7127,0.1842,1.162,0.7383,-1.2422,0.264,13.9,43.24,-10.27,327.19,81.13,-80.94,163604,2016-03-24 12:47:54:645
6.2748,-8.8091,0.7663,2.1328,-9.5556,-0.5582,5.118,-3.5576,-1.4347,-0.5255,-1.5935,-0.8361,12.83,43.15,-11.77,341.52,77.01,-104.67,163705,2016-03-24 12:47:54:746
6.3683,-8.8117,0.4262,4.5642,-8.2232,-2.778,1.8476,-2.6206,3.3278,-1.7673,0.3005,-2.353,4.7,45.2,-4.45,358.35,67.94,-122.76,163804,2016-03-24 12:47:54:845
0.8768,-4.7221,1.7448,5.5876,-7.2513,-3.5169,-1.9009,0.5063,3.6875,-0.6746,-1.1916,-2.5933,-2.26,45.34,1.83,1.27,47.68,-122.19,163903,2016-03-24 12:47:54:944
2.8395,-4.3186,-7.9164,5.1866,-7.3203,-3.9602,-8.597,4.1628,3.0601,1.1015,-0.8568,0.1953,-10.6,43.94,4.16,350.52,48.28,-127.36,164004,2016-03-24 12:47:55:045
8.0548,-4.9089,-1.2,4.9697,-7.6205,-3.6608,6.3541,-0.4929,-6.7235,0.6474,0.071,0.5859,-9.94,43.7,3.62,352.12,50.99,-126.38,164104,2016-03-24 12:47:55:145
2.2169,-6.6502,7.0167,5.3547,-7.6408,-3.0192,-7.5832,-4.9744,-1.9198,-0.3711,0.7113,-0.2253,-8.51,44.51,-0.16,347.89,51.49,-121.66,164204,2016-03-24 12:47:55:245
2.6089,-9.7726,0.2139,4.1266,-8.6769,-1.9628,-2.2313,-0.7843,5.2128,0.6837,0.6479,1.792,-2.4,45.92,-4.32,348.18,62.23,-115.44,164304,2016-03-24 12:47:55:345
2.7878,-6.505,-0.6864,3.6214,-9.022,-1.2882,2.1154,-1.4636,1.8799,1.0445,0.5058,0.7163,2.67,45.67,-6.4,351.01,62.23,-115.44,164404,2016-03-24 12:47:55:445
2.9426,-8.8303,-3.7434,3.028,-9.3259,0.1677,0.5232,0.2157,0.1954,0.0833,1.1914,0.9481,7.22,44.14,-12.64,325.67,71.99,-86.83,164504,2016-03-24 12:47:55:545
11.3499,-6.8984,-2.7163,2.4712,-9.4714,0.5973,6.6629,1.5123,0.0476,0.8788,0.7613,1.024,11.11,43.6,-12.17,331.74,71.99,-86.83,164604,2016-03-24 12:47:55:645
6.9962,-11.3065,-1.1753,2.8715,-9.3765,0.0746,6.5834,-0.8516,-2.1201,-1.4346,-2.0619,-1.3703,13.24,41.57,-14.65,312.02,75.67,-68.69,164704,2016-03-24 12:47:55:745
1.4774,-15.9328,0.9055,3.7311,-8.9465,-1.4864,1.3691,-5.9355,1.9169,-2.6151,-0.587,-1.7229,8.76,45.02,-10.59,332.43,72.97,-88.51,164804,2016-03-24 12:47:55:845
6.3313,-8.0203,0.7601,6.0298,-6.8736,-3.5448,2.1178,-3.0482,3.9466,-0.2903,-1.8364,-2.2468,-3.1,48.08,0.63,358.82,44.5,-120.45,164904,2016-03-24 12:47:55:945
-2.7003,-3.2243,2.1041,6.1378,-6.32,-4.3076,-3.5986,1.1237,5.3556,0.8297,-2.5643,-0.9853,-9.79,45.09,1.88,352.48,44.5,-120.45,165004,2016-03-24 12:47:56:045
2.0745,-4.9084,-4.9486,5.111,-7.1488,-4.3523,-7.4971,3.3462,2.494,1.3751,-1.0919,0.4379,-12.75,44.9,3.68,346.07,46.8,-130.42,165103,2016-03-24 12:47:56:144
2.2885,-17.8518,-2.8247,5.0713,-7.175,-4.3556,8.4148,-1.5007,-6.225,0.7408,-0.5846,0.8388,-13.08,45.43,0.49,340.34,46.8,-130.42,165203,2016-03-24 12:47:56:244
-1.4235,-9.9881,10.1628,5.0095,-7.7441,-3.3324,-8.3475,-2.1705,1.2267,-0.222,1.3262,0.7836,-13.51,46.08,-2.96,333.24,52.16,-123.63,165303,2016-03-24 12:47:56:344
3.9707,-8.1393,-1.9728,4.2397,-8.5659,-2.1955,1.4377,-0.4379,0.5154,1.3644,2.7513,2.1211,-10.48,45.08,-1.34,339.35,60.87,-117.38,165404,2016-03-24 12:47:56:445
5.6768,-6.4049,4.0978,3.1199,-9.2545,-0.889,2.2243,2.2069,4.4485,0.674,0.4209,0.9179,2.18,46.94,-9.37,337.62,70.68,-105.9,165504,2016-03-24 12:47:56:545
4.0426,-9.2957,1.5689,2.2396,-9.5475,0.0161,1.6665,0.2071,1.2773,0.2328,0.4514,0.8904,6.02,44.39,-14.23,326.1,73.16,-95.82,165604,2016-03-24 12:47:56:645
10.491,-10.3491,-0.3655,1.9482,-9.6073,0.2729,8.3716,2.5722,-0.8448,0.4615,0.3441,0.9212,10.19,42.81,-15.82,313.15,78.43,-82.03,165704,2016-03-24 12:47:56:745
4.1911,-14.9729,-3.1869,2.3106,-9.53,-0.1018,6.2419,-0.0496,-0.9181,-0.0382,-1.2513,-0.2116,13.95,42.17,-16.09,318.11,78.43,-82.03,165804,2016-03-24 12:47:56:845
0.8378,-16.178,-3.9001,4.2925,-8.3447,-2.8479,-1.5605,-8.7538,6.1475,-2.7835,-0.0274,-2.0241,6.41,44.51,-14.38,346.39,58.31,-123.56,165904,2016-03-24 12:47:56:945
0.3334,-3.9872,0.8634,5.9133,-6.516,-4.3296,0.9722,-0.0684,4.8892,-0.1962,-1.9099,-1.9508,-2.55,46.91,-6.54,346.97,47.83,-122.58,166004,2016-03-24 12:47:57:045
-4.3294,-1.6454,1.2162,5.458,-6.5252,-4.8788,-5.9798,2.4553,6.2019,0.6357,-2.2692,-0.5724,-8.14,46.37,-6.04,343.47,41.71,-131.79,166104,2016-03-24 12:47:57:145
15.6706,-8.935,-5.2824,5.0473,-7.2225,-4.3047,11.7005,-4.0081,-4.2687,0.7709,-0.289,0.0058,-9.39,44.45,-9.37,337.22,45.8,-132.54,166203,2016-03-24 12:47:57:244
0.6245,-14.3357,-6.734,4.9443,-7.1114,-4.5992,-3.064,-6.7891,-0.8912,-0.3217,-0.5546,-0.2837,-9.13,42.75,-13.18,333.4,46.48,-132.93,166304,2016-03-24 12:47:57:345
6.0751,-11.8179,-0.7589,3.9589,-8.2772,-3.4619,-1.7128,-4.0595,7.9905,0.9864,0.7908,1.946,-6.34,40.16,-18.46,331.52,49.38,-132.56,166404,2016-03-24 12:47:57:445
4.5228,-5.1195,0.488,3.3268,-8.7473,-2.9306,4.6734,-0.7376,0.3418,0.7891,-0.1068,1.022,-0.28,37.72,-22.34,333.07,57.57,-131.17,166504,2016-03-24 12:47:57:545
3.9454,-8.2826,-1.9406,3.014,-9.1661,-1.7519,0.5068,-0.2246,0.8897,0.2986,1.0444,0.7068,6.61,33.66,-25.6,327.67,69.18,-120.17,166604,2016-03-24 12:47:57:645
8.6115,-6.9146,-1.8361,2.5487,-9.3712,-1.3618,1.596,0.5979,0.5745,0.5355,1.1159,1.0601,9.49,31.79,-25.63,329.81,69.18,-120.17,166704,2016-03-24 12:47:57:745
4.2581,-16.5563,-6.8273,2.5974,-9.415,-0.8846,8.2431,2.467,1.9346,0.3975,-1.6288,-0.8922,10.44,27.24,-28.05,320.45,75.61,-113.32,166804,2016-03-24 12:47:57:845
2.5471,-14.5043,1.382,3.2915,-9.0484,-1.8607,2.0841,-6.3201,-1.1418,-2.4419,-0.4929,-1.4996,5.16,28.28,-28.06,321.48,67.32,-119.48,166915,2016-03-24 12:47:57:956
6.6764,-7.1698,0.6413,5.613,-7.1539,-3.6724,2.7059,-2.0826,4.7806,-0.9991,-0.0303,-2.3339,-6.54,34.1,-18.57,323.4,46.84,-123.2,167004,2016-03-24 12:47:58:045
-2.0564,-2.6652,1.3809,6.0942,-6.3614,-4.3086,-3.4113,0.8424,4.7469,0.1589,-2.4359,-1.5483,-11.31,33.83,-15.62,323.29,40.44,-125.26,167104,2016-03-24 12:47:58:145
14.876,-10.2089,-11.8803,5.2932,-6.7924,-4.6921,-6.7826,3.7548,1.8224,1.0523,-1.3608,0.0273,-17.41,29.97,-12.7,312.46,40.44,-125.26,167204,2016-03-24 12:47:58:245
7.6777,-12.9364,-0.6585,5.4618,-6.7205,-4.6014,4.4039,-5.2338,1.7362,-0.045,-0.1563,-0.284,-15.76,25.83,-7.21,309.55,45.34,-131.88,167305,2016-03-24 12:47:58:346
5.7981,-14.846,6.6839,5.364,-7.0611,-4.1879,-7.0163,-2.1535,0.791,-0.3009,0.3655,-0.805,-14.1,26.47,-5.09,317.07,43.26,-130.11,167403,2016-03-24 12:47:58:444
5.8137,-6.046,-3.5965,4.0427,-8.4474,-2.9101,4.3292,-1.3425,-0.4737,1.1748,-0.0485,1.3108,-5.64,25.11,-6.62,322.63,59.47,-125.75,167504,2016-03-24 12:47:58:545
2.569,-8.3252,-1.7594,3.8626,-8.7072,-2.3314,1.6221,2.2543,2.9036,0.3904,-0.3732,0.7029,-2.45,26.17,-7.66,334.18,59.47,-125.75,167604,2016-03-24 12:47:58:645
4.2159,-8.4318,1.9097,3.1764,-9.236,-0.8819,1.8497,0.3588,1.7744,0.5273,0.9699,0.9357,1.96,27.14,-9.25,328.27,70.36,-105.52,167704,2016-03-24 12:47:58:745
6.4884,-11.4707,-1.1966,2.8792,-9.3602,-0.5162,8.2399,3.336,-0.5948,0.485,1.017,0.9659,4.6,26.26,-9.09,330.27,72.65,-100.16,167803,2016-03-24 12:47:58:844
6.797,-11.9512,-3.5984,3.6706,-8.8727,-1.9931,5.2883,-1.0947,-0.8892,-1.2119,-1.3502,-1.0305,8.2,26.63,-8.49,341.64,72.08,-104.04,167904,2016-03-24 12:47:58:945
12.7912,-6.6417,1.4956,4.8979,-7.913,-3.0927,-2.8941,-10.8903,6.0747,-2.5492,-0.2591,-2.312,6.06,28.39,-5.24,357.43,53.79,-122.27,168004,2016-03-24 12:47:59:045
-0.1382,-4.3328,0.3388,6.8986,-5.614,-4.1307,-1.7767,-0.8823,3.4578,0.0509,-1.6545,-2.6653,-0.08,29.75,2.72,7.19,42.87,-117.81,168104,2016-03-24 12:47:59:145
-3.0277,-2.4537,-1.7928,6.3409,-5.5235,-5.0452,-7.6286,1.2629,6.7906,0.8641,-2.8616,-0.9455,-3.59,31.85,3.51,1.57,34.28,-128.51,168204,2016-03-24 12:47:59:245
19.2673,-7.9847,-5.7324,5.6961,-6.7449,-4.2698,0.8684,-0.2878,-4.233,1.0938,0.4672,0.4524,-3.57,35.96,-1.22,352.51,43.46,-126.86,168304,2016-03-24 12:47:59:345
6.8087,-19.3999,-11.8081,5.8837,-6.8593,-3.8081,10.1718,-3.2982,-2.1846,0.5397,0.539,0.102,-2.7,37.04,-3.17,350.87,44.38,-122.91,168404,2016-03-24 12:47:59:445
6.2895,-12.1613,-1.5511,4.9849,-8.1952,-2.0394,-0.5392,-4.3922,3.9028,0.9347,1.5471,1.729,-2.69,34.87,-5.83,340.41,56.69,-112.25,168504,2016-03-24 12:47:59:545
5.5553,-3.9191,1.4197,4.1919,-8.7783,-1.2408,3.0556,1.0622,0.0709,0.9018,0.8001,1.6025,2.38,34.32,-7.83,339.41,63.53,-106.49,168604,2016-03-24 12:47:59:645
3.553,-8.1943,0.3035,3.5638,-9.1362,0.0114,0.0656,0.0499,-3.6974,0.0896,1.2797,0.5398,6.85,32.34,-11.19,333.26,66.97,-96.62,168705,2016-03-24 12:47:59:746
12.0294,-5.5491,-0.7895,2.4474,-9.4594,0.8373,6.7697,2.0242,-2.1721,0.4426,1.313,1.1583,9.37,31.83,-9.52,333.35,68.69,-89.82,168804,2016-03-24 12:47:59:845
9.1267,-8.483,-3.4156,2.4524,-9.4601,0.8133,6.0328,1.7287,-0.8638,0.0677,-1.3275,0.0603,13.1,30.44,-8.58,323.13,74.71,-71.11,168904,2016-03-24 12:47:59:945
1.4344,-17.6643,3.5862,4.1816,-8.7312,-1.5655,-0.7428,-6.3728,1.8973,-2.1518,1.1424,-1.9267,9.36,33.36,-3.09,0.84,62.92,-110.52,169005,2016-03-24 12:48:00:046
9.5092,-7.4344,0.3766,5.6692,-7.7194,-2.1078,-3.9562,-9.4871,0.7019,-1.2807,-0.1014,-3.4296,6.89,33.77,1.06,7.44,51.92,-110.39,169105,2016-03-24 12:48:00:146
-3.512,-2.9062,2.4431,6.5675,-6.279,-3.6895,-5.2006,1.2099,4.9272,0.7864,-2.3633,-0.4048,-2.72,31.56,2.19,1.76,42.2,-113.21,169204,2016-03-24 12:48:00:245
2.0507,-4.5517,-4.4037,6.1715,-6.701,-3.6304,-8.7311,3.6629,3.1295,1.3242,0.3414,0.9082,-2.49,30.93,3.03,4.3,39.81,-119.33,169305,2016-03-24 12:48:00:346
6.213,-15.4086,-1.434,6.256,-7.0235,-2.7754,3.6234,-3.2445,-0.5936,0.2813,0.2284,0.3232,1.25,33.61,4.37,9.94,46.16,-118.01,169404,2016-03-24 12:48:00:445
-5.2469,-4.5451,6.6572,6.3204,-7.1035,-2.4008,-6.053,-4.9467,-1.5009,0.6198,0.7509,-0.9627,2.3,33.56,2.75,8.36,45.74,-113.92,169504,2016-03-24 12:48:00:545
6.2868,-5.9335,-4.1767,4.7003,-8.6066,-0.0582,2.8189,-3.5342,-1.323,2.1041,1.8536,2.1217,4.35,30.6,4.87,15.41,61.36,-90.71,169604,2016-03-24 12:48:00:645
2.7814,-8.2667,5.2194,4.2135,-8.8485,0.3483,1.2623,3.2957,-2.5013,0.1533,1.6728,1.3443,9.41,29.08,4.64,11.44,64.46,-85.27,169705,2016-03-24 12:48:00:746
6.7089,-8.0471,1.143,3.0703,-9.0698,2.1173,-0.2197,0.0277,-5.4048,1.6939,1.299,0.8379,13.42,27.53,6.36,354.12,67.65,-55.41,169804,2016-03-24 12:48:00:845
8.5613,-7.6921,0.0385,2.4171,-9.2189,2.311,3.7223,1.1441,-1.8767,0.1178,0.9626,1.1535,14.64,27.45,7.02,347.51,70.06,-46.29,169906,2016-03-24 12:48:00:947
6.7276,-12.9588,-4.7337,2.8856,-9.2025,1.777,4.43,-1.5842,-2.1128,-0.213,-1.0929,-0.2329,21.71,26.98,12.76,347.61,69.92,-43.28,170008,2016-03-24 12:48:01:049
4.0178,-13.7815,-2.2756,3.8043,-9.0335,0.3066,-0.4375,-4.9997,2.5957,-2.0293,-1.1705,-1.5196,26.79,29.23,12,14.84,67.1,-85.39,170104,2016-03-24 12:48:01:145
3.8917,-6.3819,0.1876,5.9092,-7.5976,-1.8783,3.0123,-0.5026,2.1366,-1.5132,-0.4501,-2.1032,24.17,38.96,2.07,12.35,50.78,-107.63,170203,2016-03-24 12:48:01:244
-3.9015,-2.3377,-0.019,6.0582,-7.001,-3.2334,-8.051,3.7121,4.405,0.6877,-1.9547,-0.4733,1.58,45.12,-2.79,357.11,45.55,-118.09,170304,2016-03-24 12:48:01:345
15.814,-13.4849,-12.672,5.6947,-7.429,-2.9241,-6.3075,3.2576,-0.1424,1.0186,-0.4147,0.5058,-4.26,45.09,-3.05,350.79,49.25,-117.18,170405,2016-03-24 12:48:01:446
-15.3878,4.3262,-1.5662,5.4352,-7.5651,-3.0656,0.8888,-4.4749,6.3321,-0.838,0.193,0.7543,-8.09,45.87,-6.63,340,49.19,-116.29,170505,2016-03-24 12:48:01:546
11.7735,-10.9957,-5.4413,4.3397,-8.3754,-2.6813,-16.5543,8.7279,5.3241,0.0138,1.638,2.4024,-8.25,46.32,-7.66,337.97,50.48,-119.42,170603,2016-03-24 12:48:01:644
5.7161,-7.4993,-1.2523,2.3835,-9.4728,-0.8695,1.2415,3.7387,0.6453,1.1655,0.6945,1.3827,4.17,45.76,-12.08,333.08,75.01,-110.04,170704,2016-03-24 12:48:01:745
1.5821,-9.0467,-0.8596,2.123,-9.5735,-0.1064,3.3416,1.3717,-0.0644,1.0277,0.6679,0.4455,6.4,45.01,-14.71,318.06,77.48,-92.87,170804,2016-03-24 12:48:01:845
8.1277,-6.6118,-0.6345,1.0982,-9.7111,0.8119,4.2296,0.4119,-1.1586,0.528,0.5461,1.1212,10.24,41.53,-19.24,301.27,79.49,-75.95,170904,2016-03-24 12:48:01:945
8.7919,-10.247,-0.55,0.8359,-9.7191,1.0057,8.7146,4.3672,-1.5193,0.2821,-0.3319,0.4289,14.36,40.34,-19.37,269.31,82.34,-39.73,171005,2016-03-24 12:48:02:046
1.2671,-17.4838,3.61,2.2443,-9.5235,-0.6612,4.7993,-3.4151,0.3093,-2.0721,-1.5675,-1.8088,9.14,40.6,-19.39,285.8,81.58,-64.49,171103,2016-03-24 12:48:02:144
11.0474,-7.9743,-2.4252,3.3841,-9.0086,-1.8875,-2.1827,-8.6622,4.0817,-2.2321,1.1306,-1.9489,3.37,42.08,-16.07,334.44,66.73,-119.15,171204,2016-03-24 12:48:02:245
-1.8669,-3.9273,2.4874,5.4529,-7.4406,-3.3277,-0.3301,0.1911,3.8101,0.1419,-2.4673,-1.481,-8.23,41.7,-9.52,334.07,49.35,-121.39,171304,2016-03-24 12:48:02:345
-1.66,-2.9034,-1.2545,5.2223,-7.3651,-3.828,-6.6925,2.6245,5.5095,0.8058,-1.9167,-0.1353,-12.48,41.17,-8.69,328.22,49.35,-121.39,171404,2016-03-24 12:48:02:445
14.2153,-11.9465,-1.711,4.6406,-8.1555,-2.85,0.345,1.9774,-3.2653,0.6873,0.6731,0.581,-9.7,38.09,-8.29,328.89,52.43,-125.73,171505,2016-03-24 12:48:02:546
-9.0156,-1.1002,8.8894,4.9755,-8.2583,-1.7933,-15.468,6.0741,8.2618,0.6371,0.8059,-1.359,-9.21,38.87,-10.48,323.37,57.36,-109.82,171604,2016-03-24 12:48:02:645
8.5159,-17.9047,8.2784,4.3198,-8.7661,-0.8161,4.7272,-6.9625,5.2543,-0.5192,1.827,1.9249,-12.4,36.11,-11.1,299.66,63.37,-100.7,171705,2016-03-24 12:48:02:746
3.1401,-7.1275,5.5488,3.1458,-9.2815,0.3573,0.4796,2.1836,2.407,0.0401,0.5627,1.274,-2.02,37.51,-17.06,297.22,71.17,-83.52,171803,2016-03-24 12:48:02:844
3.7181,-9.3437,2.8002,2.836,-9.2555,1.5692,2.0175,0.7155,2.0924,1.1064,0.8393,0.4587,1.7,35.86,-15.52,306.18,71.17,-83.52,171903,2016-03-24 12:48:02:944
12.8168,-5.0412,0.8748,1.658,-9.3162,2.575,6.0956,0.8702,-2.5604,0.1894,1.1972,1.0237,3.43,35.14,-21.06,252.8,71.8,-32.78,172004,2016-03-24 12:48:03:045
2.6294,-15.4384,-8.0511,1.8587,-9.2687,2.6089,8.4901,2.1268,-2.297,0.2182,-0.3888,0.3675,8.76,33.35,-22.51,264.5,70.93,-35.47,172104,2016-03-24 12:48:03:145
1.3432,-15.7865,0.3416,3.6455,-9.1024,-0.1634,-1.1962,-6.7722,-1.8441,-2.8344,-0.7881,-1.6625,1.04,35.24,-19.26,307.9,68.15,-92.57,172203,2016-03-24 12:48:03:244
1.5674,-4.3608,0.5963,5.025,-8.3501,-1.0938,-3.239,-7.3123,0.2307,-2.4352,1.0971,-2.2244,-4.17,38.52,-15.05,307,68.15,-92.57,172304,2016-03-24 12:48:03:345
-2.8568,-2.1399,1.1557,6.3316,-6.941,-2.8114,-7.8508,3.3022,4.2794,-0.0434,-2.1129,-1.2753,-13.13,38.22,-7.44,330.28,45.05,-113.94,172404,2016-03-24 12:48:03:445
7.0533,-6.0403,-9.4312,5.9253,-7.3622,-2.6191,-7.8523,5.4555,1.5506,1.0105,-0.9692,0.3683,-17.44,36.92,-4.05,323.02,48.65,-113.85,172504,2016-03-24 12:48:03:545
-5.0275,-18.7347,-8.8718,5.9551,-7.621,-1.6211,0.6543,-2.5555,0.1731,0.2204,1.3374,-0.1001,-15.32,37.05,-3.8,328.75,51,-105.23,172605,2016-03-24 12:48:03:646
0.0163,-10.7013,5.4562,5.6099,-8.0184,-0.6355,-5.7,-5.3008,-2.7377,0.5391,2.041,0.7294,-14.44,37.4,-3.63,331.01,51,-105.23,172704,2016-03-24 12:48:03:745
9.1315,-6.0674,-1.702,3.209,-9.1757,1.2956,1.4853,-1.1215,0.2411,1.0701,1.4409,2.0516,-8.22,38.93,-7.23,321.34,69.34,-68.01,172803,2016-03-24 12:48:03:844
3.3124,-8.7995,1.4567,2.1986,-9.1892,2.6259,1.7328,1.7766,-1.7274,0.7226,1.4639,0.2646,1.25,37.82,-12.48,301.72,70.79,-51.49,172904,2016-03-24 12:48:03:945
6.8621,-8.4834,0.3405,1.5123,-9.2246,2.9649,1.0423,-0.6865,-5.6786,0.4273,1.1194,0.9068,3.68,38.08,-14.31,286.16,70.16,-27.02,173004,2016-03-24 12:48:04:045
6.8866,-8.5935,-0.9328,0.8862,-9.2153,3.2346,8.7653,1.9501,-4.3684,0.0519,-0.5725,0.3594,9.93,36.34,-14.22,279.14,70.16,-16.09,173104,2016-03-24 12:48:04:145
2.8241,-14.366,1.4031,1.6735,-9.3108,2.5842,5.8961,-1.366,-5.4487,-1.0408,-1.3422,-1.3299,10.49,36.33,-15.46,275.04,70,-15.32,173204,2016-03-24 12:48:04:245
9.5188,-11.6677,-1.7826,4.0273,-8.9406,0.1341,0.9531,-5.5931,-0.9308,-1.8129,0.4448,-2.5049,-0.29,40.34,-9.91,312.96,71.88,-65.22,173304,2016-03-24 12:48:04:345
1.7296,-4.9632,1.4272,5.3241,-8.2083,-0.6693,1.2867,-0.7435,-0.342,-0.7207,-1.384,-2.0941,-5.04,40.61,-6.32,340.82,56.83,-97.17,173404,2016-03-24 12:48:04:445
-3.6254,-1.9983,0.3878,5.7472,-7.7204,-1.8802,-7.4419,4.3608,3.0596,0.7621,-1.2224,0.3233,-13.33,37.29,-1.74,336.36,51.93,-108.12,173504,2016-03-24 12:48:04:545
14.5542,-10.6632,-12.6044,5.235,-8.1636,-1.4564,-7.2561,4.9691,0.4175,1.122,0.5712,1.2316,-13.59,36.57,-0.52,333.59,56.35,-105.55,173605,2016-03-24 12:48:04:646
3.5219,-11.2906,0.7466,5.4555,-8.1052,-0.8445,5.9671,-0.9799,-1.6204,0.4572,-0.3416,-0.5302,-9.48,39.33,-2.86,340.6,56.35,-105.55,173704,2016-03-24 12:48:04:745
1.0942,-11.2369,6.6707,4.9198,-8.465,-0.5576,-2.913,-7.1823,-5.1588,0.2521,1.1437,-0.2616,-10.52,38.59,-3.8,333.91,59.68,-96.47,173804,2016-03-24 12:48:04:845
10.3669,-6.9331,-2.4097,2.921,-9.3161,0.9211,3.2827,-3.1397,1.7006,1.5571,-0.2354,1.7949,-4.51,39.37,-4.72,332.31,71.8,-72.5,173904,2016-03-24 12:48:04:945
1.6855,-9.447,-3.0899,2.5111,-9.3296,1.68,-0.6969,1.3921,0.1875,1.0024,1.0438,0.6994,-1.39,40.74,-8.6,318.4,71.8,-72.5,174004,2016-03-24 12:48:05:045
7.1578,-7.8719,-1.7699,1.2563,-9.4266,2.394,4.4521,0.3047,-2.2755,0.3498,0.9965,1.036,4.85,38.73,-13.72,275.59,74,-27.69,174104,2016-03-24 12:48:05:145
8.7224,-8.2479,0.7591,0.9159,-9.3908,2.6728,9.6082,3.0387,-2.5453,0.4416,0.7611,1.0137,8.2,38.39,-13.96,278.92,74,-27.69,174205,2016-03-24 12:48:05:246
4.5705,-11.4967,3.8623,2.3666,-9.4057,1.4502,3.7595,-3.5861,-4.693,-0.7003,-2.2266,-0.9034,10.48,37.61,-14.78,302.36,73.56,-58.5,174304,2016-03-24 12:48:05:345
5.7206,-14.7184,-0.3501,4.8283,-8.516,-0.5785,-0.4402,-7.047,0.1707,-1.6375,0.8768,-2.2928,1.62,41.88,-9.42,331.02,69.88,-89.63,174405,2016-03-24 12:48:05:446
-1.4191,-4.0821,1.727,6.0055,-7.6574,-1.212,0.2525,-1.0236,0.9903,-0.3167,-1.1617,-2.6949,-4.5,42.78,-5.8,339.61,60.27,-96.83,174504,2016-03-24 12:48:05:545
-3.5427,-3.4828,-1.2238,5.9392,-7.6123,-1.7172,-8.0345,4.2071,2.8594,0.9022,-1.1158,0.1999,-13.72,40.13,-2.16,340.78,48.55,-106.39,174604,2016-03-24 12:48:05:645
10.8061,-4.596,0.1916,5.4624,-8.0044,-1.504,-6.972,3.3541,-0.9653,0.6045,-0.0643,0.8127,-14.38,40.41,-3.41,332.59,54.71,-105.39,174704,2016-03-24 12:48:05:745
8.0824,-18.8116,-0.4076,5.4151,-8.1205,-0.9513,-4.35,-10.1441,-4.7983,-0.0082,0.6127,0.0048,-11.37,41.49,-7.28,329.64,55.9,-99.96,174803,2016-03-24 12:48:05:844
-0.8685,-6.2339,1.2524,4.9115,-8.4667,-0.602,-1.2339,-1.9257,5.8612,0.0749,0.75,0.9768,-10.2,41.76,-8.53,323.2,59.7,-96.99,174904,2016-03-24 12:48:05:945
4.5111,-4.3104,0.7255,3.5614,-9.1155,0.6284,3.3229,0.6986,0.3938,0.8099,0.7211,0.8988,-3.43,43.08,-12.13,321.79,65.22,-89.56,175004,2016-03-24 12:48:06:045
2.0713,-8.9918,-3.8094,3.1595,-9.1337,1.6623,-0.1583,2.3956,0.0836,1.1432,1.7957,0.4027,0.3,42.51,-15.1,304.57,68.65,-62.25,175104,2016-03-24 12:48:06:145
11.2557,-7.0596,-1.2258,1.7243,-9.3048,2.5724,4.5016,1.0007,-0.6141,0.5107,0.8206,1.0172,7.95,40.8,-18.21,293.27,70.18,-47.59,175204,2016-03-24 12:48:06:245
9.734,-10.4536,-0.894,1.7025,-9.2751,2.6914,9.2042,2.4804,-3.5754,0.1389,-0.5447,0.1507,11.48,39.95,-19.63,277.31,71.05,-32.32,175303,2016-03-24 12:48:06:344
1.3539,-18.4834,1.2777,3.7634,-9.0522,0.2548,2.8821,-4.1203,-3.2221,-2.5431,0.4544,-2.1227,6.27,41.98,-16.32,299.19,71.58,-55.07,175409,2016-03-24 12:48:06:450
1.6514,-5.1596,0.873,6.5171,-7.1402,-1.6477,-1.9117,0.1604,2.1499,-0.7772,-1.6161,-2.2639,-4.17,46.09,-6.83,341.51,57.23,-97.69,175504,2016-03-24 12:48:06:545
-3.2336,-2.1942,1.3387,6.8121,-6.5428,-2.6378,-6.918,1.9097,4.0132,0.3608,-2.3773,-0.9762,-10.79,43.3,-3.4,345.36,41.85,-111.17,175604,2016-03-24 12:48:06:645
4.4209,-4.32,-7.8674,6.0056,-7.2231,-2.816,-0.4543,1.368,-4.1885,0.6023,-0.2635,1.1196,-13.88,41.19,-4.16,337.08,43.18,-114.43,175709,2016-03-24 12:48:06:750
-1.4635,-8.7063,2.5708,5.948,-7.3153,-2.6978,9.0132,-1.0712,-4.2181,0.5527,-0.3326,-0.692,-11.13,42.46,-4.94,337.57,48.24,-114.4,175804,2016-03-24 12:48:06:845
-2.2984,-3.6769,4.5617,5.6625,-7.4938,-2.8193,0.3221,-3.4372,2.2379,-1.6146,0.4183,0.1539,-13.24,41.66,-6.79,331.75,47.02,-116.15,175904,2016-03-24 12:48:06:945
4.9047,-8.7893,-4.5288,4.8974,-8.2736,-1.9323,-3.6312,0.1776,6.8072,0.4949,1.5132,1.9817,-11.53,42.19,-6.72,324.49,57.53,-111.53,176004,2016-03-24 12:48:07:045
5.3637,-7.0721,5.142,4.0652,-8.8977,-0.6893,1.3246,3.442,0.1974,0.4809,0.3203,0.8495,-0.11,41.7,-13.16,326.86,65.14,-99.62,176104,2016-03-24 12:48:07:145
4.5068,-8.9241,3.3425,3.7595,-9.0573,-0.0484,0.7606,0.1751,2.4323,0.9217,1.6252,0.3142,1.64,41.78,-13.45,324.38,67.46,-90.74,176204,2016-03-24 12:48:07:245
12.7137,-4.8168,0.7806,2.8885,-9.3526,0.5969,7.9984,3.4473,-0.3836,0.5037,0.7935,0.9728,8.91,40.62,-15.99,321.02,71.4,-85.94,176304,2016-03-24 12:48:07:345
8.0848,-11.445,-3.0894,3.2742,-9.2421,0.1846,5.3425,-2.115,-1.8968,0.3278,-1.0345,-0.1617,10.91,39.82,-16.16,324.05,70.46,-86.77,176404,2016-03-24 12:48:07:445
5.3904,-16.3984,-2.2221,4.962,-8.0577,-2.5734,-2.5974,-9.3311,3.8124,-2.6819,-0.6334,-1.8735,5.19,41.86,-12.51,337.29,64.77,-108.02,176504,2016-03-24 12:48:07:545
2.1262,-4.1806,0.9667,6.1076,-6.9804,-3.1847,1.445,-4.9789,3.3066,-1.8604,0.5882,-2.2033,-0.5,43.95,-5.82,350.81,45.38,-117.54,176604,2016-03-24 12:48:07:645
-3.2843,-3.6088,2.0947,5.8769,-6.1292,-4.9056,-7.5345,2.0459,7.0397,0.4783,-2.5606,-0.7753,-11.48,41.29,0.61,346.58,38.68,-129.85,176705,2016-03-24 12:48:07:746
18.3702,-11.8788,-12.5396,5.4678,-6.7538,-4.5454,-9.8574,4.2595,4.4357,1.0733,-0.5731,0.484,-13.22,40.39,2.92,343.9,43.53,-129.74,176804,2016-03-24 12:48:07:845
5.7011,-17.5683,-6.8928,5.9701,-6.7039,-3.948,9.7534,-5.3354,-1.1014,-0.1306,0.3141,-0.7292,-10.07,41.24,0.88,348.89,43.13,-123.48,176903,2016-03-24 12:48:07:944
13.5394,-14.9735,-1.1164,5.8059,-7.0929,-3.486,-9.0073,-4.226,-1.4566,-0.0835,1.4028,0.7934,-11.63,42.09,0.8,345.91,46.33,-120.98,177004,2016-03-24 12:48:08:045
3.7436,-6.3593,1.0864,4.3371,-8.5943,-1.8703,-0.1941,1.7276,2.0807,0.7931,0.1051,1.2198,-2.49,43.15,-3.84,349.54,55.64,-115.76,177104,2016-03-24 12:48:08:145
4.9646,-7.8777,-2.4426,3.8125,-9.0222,-0.4856,0.8939,0.6092,-2.2212,0.364,1.4308,0.5537,3.84,44.5,-8.19,344.64,64.71,-105.41,177203,2016-03-24 12:48:08:244
4.7485,-7.6943,1.3597,3.4476,-9.18,-0.1086,1.6005,1.183,1.4122,0.3657,0.8664,0.7111,5.03,44.01,-8.76,336.6,69.41,-91.8,177304,2016-03-24 12:48:08:345
10.0504,-9.0687,1.5025,3.034,-9.3101,0.5356,5.8177,0.5843,-0.3135,0.6467,-1.4153,0.2154,9.96,44.77,-9.47,334.27,71.69,-79.99,177404,2016-03-24 12:48:08:445
3.9659,-12.4279,-0.8887,3.442,-9.1719,-0.4453,5.1484,-3.2407,-2.2195,-1.6356,-1.7928,-0.9387,9,44.22,-10.55,328.74,71.69,-79.99,177504,2016-03-24 12:48:08:545
6.8926,-11.5271,-0.1567,5.6093,-7.563,-2.7399,-3.9649,-8.6565,1.8858,-1.8974,0.6425,-2.5457,0.61,48.23,-0.37,0.98,60.88,-114.42,177604,2016-03-24 12:48:08:645
2.8615,-5.6214,0.0028,6.5961,-6.4708,-3.285,1.0919,-3.5912,3.0828,-0.3744,-1.2842,-2.1958,-4.24,48.19,3.94,3.16,41.29,-116.47,177703,2016-03-24 12:48:08:744
-4.1962,-1.9515,0.058,6.3001,-6.1423,-4.3303,-6.9916,1.8242,5.8667,1.2211,-0.8294,0.3076,-11.96,46.56,6.1,357.78,37.09,-121.44,177804,2016-03-24 12:48:08:845
17.7943,-9.48,-7.2462,5.9925,-6.6359,-4.0281,3.8942,-1.2527,-6.1548,0.7734,0.2523,0.8738,-10.65,48.32,2.21,351.05,42.58,-123.91,177904,2016-03-24 12:48:08:945
13.3884,-18.6638,-4.7687,5.9273,-6.5987,-4.1826,-5.4181,-8.043,-2.5207,-1.3816,0.6904,0.326,-9.81,49.84,-5.07,343.46,43.36,-123.01,178004,2016-03-24 12:48:09:045
-1.8353,-9.0284,4.008,5.5333,-6.9766,-4.1086,-4.5009,-1.6116,8.8907,-1.3816,0.6904,0.326,-9.81,49.84,-5.07,343.46,43.36,-123.01,178104,2016-03-24 12:48:09:145
5.3129,-5.4507,1.3168,4.4047,-8.2722,-2.8879,2.6841,-0.5925,6.2188,0.1935,-0.0193,1.3808,-1.52,52.11,-6.97,346.85,57.51,-123.25,178207,2016-03-24 12:48:09:248
2.2221,-9.5707,0.9319,4.5523,-8.5082,-1.7486,1.8486,1.5509,0.6828,2.1569,1.7894,0.5268,4.15,53.06,-7.51,352.68,57.51,-123.25,178304,2016-03-24 12:48:09:345
10.1556,-5.3184,0.2078,4.0117,-8.8862,-1.0546,0.4928,-0.1066,2.3083,-6.0000E-04,1.3502,0.9785,10.83,49.1,-15.18,340.9,64.98,-104.73,178404,2016-03-24 12:48:09:445
8.5798,-7.4583,-3.1852,3.9745,-8.7832,-1.7968,3.628,-2.0702,0.4488,-0.3354,-0.6466,0.0101,15.08,47.8,-17.76,345.74,63.59,-114.33,178505,2016-03-24 12:48:09:546
1.28,-17.7729,3.0813,4.6418,-8.0028,-3.2525,5.2116,-0.0383,0.8857,-1.6435,-2.0742,-1.4224,13.01,49.67,-18.01,351.01,54.69,-125.02,178604,2016-03-24 12:48:09:645
8.1409,-8.7947,0.0635,6.6226,-5.4307,-4.777,0.7027,-2.9739,4.8314,-2.3783,-0.1179,-2.0988,5.17,52.05,-13.95,347.86,54.69,-125.02,178704,2016-03-24 12:48:09:745
-3.964,-2.9178,2.0069,6.3241,-4.8075,-5.7501,-6.0708,-0.4854,7.0851,0.0504,-2.2924,-1.9492,-11.52,50.61,-3.09,346.05,33.63,-125.8,178803,2016-03-24 12:48:09:844
3.8926,-5.5713,-7.9446,5.1254,-5.8179,-6.0044,-4.9169,1.6166,0.9605,1.0354,-0.4609,0.794,-16.74,46.52,1.61,339.05,36.39,-139.52,178904,2016-03-24 12:48:09:945
-4.2001,-14.7063,-10.1594,5.0763,-5.9763,-5.8895,12.8315,-5.7382,-4.1262,0.5219,-0.272,0.1956,-14.55,47.73,-1.37,340.1,36.39,-139.52,179004,2016-03-24 12:48:10:045
2.2921,-8.7966,6.5221,4.8158,-6.2595,-5.8135,-1.2122,-6.221,7.8504,-0.061,0.9099,1.1314,-13.22,47.62,-4.39,340.55,36.05,-141.81,179104,2016-03-24 12:48:10:145
6.4362,-7.5009,-3.1506,4.5182,-7.1716,-4.932,-1.9145,-2.5547,8.0407,1.0433,1.0698,1.5519,-8.19,47.88,-8.07,343.33,39.66,-140.36,179204,2016-03-24 12:48:10:245
2.6306,-8.2846,5.0878,4.4302,-7.8303,-3.9025,0.2743,0.7938,3.2593,0.7314,0.9006,0.431,-0.18,46.79,-13.17,346.38,50.13,-135.95,179304,2016-03-24 12:48:10:345
6.8631,-7.9077,2.6439,4.1798,-8.2215,-3.3328,-0.704,-0.7655,6.3693,0.301,0.7907,0.8996,1.81,46.22,-15.23,344.9,52.98,-131.38,179403,2016-03-24 12:48:10:444
8.7722,-6.6552,-0.4265,3.6346,-8.7545,-2.5136,6.1893,1.7899,1.1608,0.4342,-0.0337,0.4908,10.66,42.92,-18.05,346.85,63.22,-124.67,179504,2016-03-24 12:48:10:545
2.7218,-14.2008,0.3768,3.6548,-8.6834,-2.7225,5.3106,-1.5169,2.9997,0.1153,-1.825,-0.5515,11.76,41.69,-18.91,346.75,63.22,-124.67,179605,2016-03-24 12:48:10:646
0.7482,-14.4506,-4.8821,4.8408,-6.9659,-4.9207,-1.7498,-9.1474,6.7418,-2.6092,1.1849,-1.8407,2.1,43.11,-15.93,344.11,55.85,-135.11,179704,2016-03-24 12:48:10:745
0.4992,-4.7817,1.5118,6.0293,-5.6752,-5.2545,0.866,-6.7923,3.68,-1.1996,-0.2254,-2.547,-1.25,46.19,-9.86,348.19,45.26,-135.47,179804,2016-03-24 12:48:10:845
-3.98,-2.5534,1.0064,5.3389,-4.679,-6.7657,-5.6202,-0.0958,8.3164,0.8809,-2.2684,-0.489,-13.36,42.82,-4.27,340.31,28.5,-141.72,179904,2016-03-24 12:48:10:945
19.2673,-8.0501,-4.5632,5.0815,-5.9667,-5.8947,-2.5914,-0.5723,-1.5185,0.1193,0.6835,0.1768,-12.74,41.13,-6.3,335.45,37.48,-139.24,180003,2016-03-24 12:48:11:044
-2.3627,-19.4222,-16.8748,5.5856,-6.1192,-5.2466,12.1756,-2.871,-2.3462,1.1521,1.3983,-0.1451,-11.75,40.18,-7.26,335.18,38.61,-133.21,180104,2016-03-24 12:48:11:145
2.3025,-9.0861,3.3382,5.122,-7.5861,-3.5195,-2.6484,-2.177,6.6241,-0.0787,1.6394,1.5666,-11.38,40.79,-9.9,332.63,43,-128.37,180204,2016-03-24 12:48:11:245
3.9203,-7.0048,-2.0287,4.5614,-8.2009,-2.8476,1.1155,-0.8649,-0.8853,1.8575,0.8387,1.826,-10.29,41.48,-9.66,329.9,50.68,-124.49,180303,2016-03-24 12:48:11:344
3.182,-9.2246,-4.7436,4.3645,-8.6204,-1.6762,0.2543,-1.1757,-2.1417,0.6085,2.096,0.3192,-0.14,40.76,-13.81,334.44,59.38,-116.34,180404,2016-03-24 12:48:11:445
8.9062,-7.7519,-2.1257,3.8647,-8.9431,-1.1206,0.4699,0.719,3.913,-0.1609,1.1769,0.8818,3.9,40.07,-15.93,329.27,65.77,-106.17,180504,2016-03-24 12:48:11:545
7.9034,-16.5195,3.2947,3.7891,-9.0347,-0.4329,6.3172,0.3114,1.9059,0.7898,-1.1948,0.0949,9.7,37.71,-15.55,331.24,68.66,-99.93,180604,2016-03-24 12:48:11:645
4.2529,-13.2123,1.9242,4.3386,-8.663,-1.5162,0.6845,-7.3945,-2.6421,0.1912,-1.7922,-1.075,8.35,37.23,-17.46,325.77,67.11,-96.52,180703,2016-03-24 12:48:11:744
5.1856,-6.8502,-0.1777,6.4637,-6.5795,-3.3318,-1.3771,-7.2594,1.8317,-2.4482,1.3124,-2.0621,0.12,41.79,-8.33,348.05,42.14,-117.27,180804,2016-03-24 12:48:11:845
-0.5233,-3.0775,2.2308,6.8802,-5.5923,-4.1905,-0.9407,-2.0196,5.1743,-0.8457,-1.1478,-2.2142,-4.75,42.24,-4.94,347.22,42.14,-117.27,180905,2016-03-24 12:48:11:946
7.4137,-6.7207,-9.8298,6.193,-6.0105,-4.6573,-6.5718,2.5361,0.8885,1.2153,-0.8522,0.3164,-12.48,38,-1.34,343.48,33.24,-126.59,181003,2016-03-24 12:48:12:044
5.504,-4.1046,0.0857,6.1382,-6.356,-4.2537,11.0709,-5.7869,-7.5381,0.9664,0.3319,0.6295,-12.45,38.15,-2.24,339.99,40.4,-124.72,181104,2016-03-24 12:48:12:145
-1.4697,-4.7384,4.454,6.0039,-7.4484,-2.1552,-0.2578,-8.0291,0.7483,1.1903,1.7119,0.9658,-11.74,39.19,-5.33,334.14,49.42,-109.75,181204,2016-03-24 12:48:12:245
5.1662,-11.4173,0.9702,5.3272,-8.1135,-1.401,-5.6243,1.8481,5.9375,0.6422,0.907,1.4275,-9.08,39.42,-6.99,335.09,49.42,-109.75,181303,2016-03-24 12:48:12:344
4.0645,-8.7657,1.3235,4.0192,-8.9393,0.3248,1.1241,2.3065,-1.778,0.8088,1.0406,0.8337,-2.59,39.6,-10.73,320.3,65.72,-85.38,181404,2016-03-24 12:48:12:445
4.3679,-6.8908,-0.1753,3.6774,-9.0466,0.8979,0.0601,0.1371,-0.0556,0.6159,0.8775,0.5226,0.4,38.4,-12.63,318.55,65.72,-85.38,181505,2016-03-24 12:48:12:546
10.6273,-4.9729,0.4301,2.5913,-9.3215,1.6014,3.1553,0.6873,-1.2062,0.3111,0.5527,0.8189,6.36,38.27,-14.29,302.67,71.9,-58.28,181604,2016-03-24 12:48:12:645
8.6366,-9.1057,-1.8979,3.2722,-9.2078,0.824,4.7506,-0.7505,-1.6762,-1.0256,-1.61,-1.2305,7.26,38.48,-15.36,300.7,72.05,-57.85,181704,2016-03-24 12:48:12:745
0.3943,-18.7422,0.7904,4.2822,-8.8107,-0.4526,-1.5162,-9.0406,3.0736,-2.24,-0.1261,-1.9605,3.25,41.03,-13.71,328.27,63.95,-96.03,181803,2016-03-24 12:48:12:844
2.5951,-4.9072,0.8195,6.7741,-6.6577,-2.4407,-0.2464,-0.4642,2.6014,-0.412,-2.1621,-2.3029,-8.76,41.43,0.43,352.8,52.94,-104.42,181906,2016-03-24 12:48:12:947
-3.1711,-3.9146,2.3001,6.7899,-6.1191,-3.5531,-6.8194,1.5583,5.5943,0.7452,-2.957,-1.0842,-13.22,39.11,4.46,353.6,38.61,-117.62,182003,2016-03-24 12:48:13:044
19.2673,-10.6611,-11.322,6.1021,-7.0246,-3.0965,-6.9967,2.4202,-2.2829,0.6679,0.1419,1.1207,-13.8,38.05,2.5,347.57,45.75,-116.91,182104,2016-03-24 12:48:13:145
-0.2778,-13.119,-1.2841,6.0625,-7.1092,-2.979,11.6051,-3.524,-6.5682,0.312,-0.1759,-0.5351,-12.04,41.92,1.3,348.07,46.46,-116.17,182204,2016-03-24 12:48:13:245
1.5522,-9.519,5.2473,5.7014,-7.5451,-2.5953,-2.269,-3.7554,1.4883,0.9829,1.0779,2.0735,-10.16,41.45,-1.98,343.26,50.3,-114.48,182303,2016-03-24 12:48:13:344
6.3524,-7.4905,-3.2889,4.8403,-8.3773,-1.601,-3.5121,-0.7554,6.9391,0.8744,1.2017,1.6099,-6.26,42.84,-3.95,342.98,58.68,-108.3,182403,2016-03-24 12:48:13:444
2.8189,-8.9857,-5.8767,4.154,-8.8681,-0.5205,1.5887,2.1734,0.2163,0.2415,0.0083,0.4846,-0.85,45.03,-6.8,339.69,64.73,-97.14,182504,2016-03-24 12:48:13:545
6.0774,-7.4453,1.4825,3.2746,-9.239,0.2971,2.7036,1.3517,0.0955,-0.1509,0.73,0.9589,3.61,44.15,-9.06,336.48,67.33,-90.11,182603,2016-03-24 12:48:13:644
5.5491,-11.5304,0.2156,3.1209,-9.2739,0.6529,6.6994,3.2301,-0.7494,0.6691,0.641,0.7549,6.62,43.59,-9.99,332.64,70.41,-84.82,182705,2016-03-24 12:48:13:746
10.4237,-8.5485,-0.9379,3.1984,-9.2515,0.5923,3.148,-1.6733,-1.0196,0.4171,-0.737,0.0627,8.38,43.76,-10.31,330.92,70.63,-79.51,182805,2016-03-24 12:48:13:846
2.3166,-19.2229,-0.0748,5.0194,-8.3037,-1.4231,-0.6794,-8.1659,3.8373,-2.0808,-0.8497,-2.0456,6.7,45.8,-9.26,348.18,57.86,-105.83,182904,2016-03-24 12:48:13:945
3.7515,-6.3786,1.107,7.4094,-5.8415,-2.6736,1.4516,-1.6573,2.6035,-0.5001,-1.0145,-3.1715,-6.42,46.48,0.44,356.51,46.83,-106.07,183004,2016-03-24 12:48:14:045
-6.7078,-2.6936,-0.1475,7.2212,-5.4752,-3.7478,-6.9015,-0.1627,5.7534,0.8327,-2.9922,-1.5403,-12.5,42.71,4.86,356.82,33.94,-117.43,183103,2016-03-24 12:48:14:144
15.136,-9.0565,-8.5681,6.6135,-6.5737,-3.0361,-7.4641,1.577,-1.3815,1.0488,0.8018,0.8368,-13.61,41.95,3.66,352.82,37.57,-118.23,183204,2016-03-24 12:48:14:245
-4.0976,-6.739,4.1785,6.7463,-6.6168,-2.6222,9.6422,-1.3326,-4.9094,0.4955,0.5288,0.1872,-11.73,43.45,1.39,351.88,42.43,-111.24,183304,2016-03-24 12:48:14:345
11.1169,-13.8298,2.5911,5.8926,-7.8246,-0.473,-7.0881,-2.6001,7.3401,0.3826,2.6187,1.9776,-11.95,44.66,-1.69,350.53,52.93,-94.59,183403,2016-03-24 12:48:14:444
4.8374,-5.4232,-0.953,4.6949,-8.6026,0.3533,4.6756,-1.6792,-3.4534,0.7482,1.6614,2.3549,-7.33,45.98,-4.8,344.07,61.31,-85.7,183506,2016-03-24 12:48:14:547
1.1779,-10.2154,-7.4597,4.0236,-8.8404,1.3518,2.2842,0.8694,2.0425,0.9655,0.9813,0.1905,1.97,46.31,-8.2,336.95,64.35,-71.43,183604,2016-03-24 12:48:14:645
6.5449,-8.2762,-0.4628,3.5239,-8.9357,1.9761,-1.0855,-1.1931,-6.3034,0.6444,1.1311,0.6565,3.31,46.37,-11.13,329.49,64.35,-71.43,183704,2016-03-24 12:48:14:745
7.5604,-6.333,-0.0334,2.6866,-9.1584,2.2531,6.404,1.9902,-2.3393,0.1645,0.0212,0.4605,9.51,45.66,-13.78,311.55,69.05,-50.02,183804,2016-03-24 12:48:14:845
4.3098,-13.0093,0.5513,3.8349,-9.0135,0.4702,5.9463,-0.0599,-3.0304,-2.1165,-1.5952,-1.388,7.12,44.56,-15.21,324.95,66.8,-83.01,183904,2016-03-24 12:48:14:945
1.125,-16.6565,0.6318,4.8087,-8.5107,-0.7838,-0.7066,-5.8454,1.1919,-2.3125,1.0693,-1.7742,2.39,46.57,-11.87,336.69,60.21,-99.26,184004,2016-03-24 12:48:15:045
0.4823,-5.0709,0.0388,6.8574,-6.709,-2.0337,-5.5606,1.1599,2.1044,0.1187,-2.181,-1.7525,-8.55,46.4,-3.16,349.1,43.17,-106.52,184104,2016-03-24 12:48:15:145
-2.2871,-2.8853,0.8952,6.7889,-6.5037,-2.7899,-8.3653,2.9289,3.8169,0.6985,-1.9692,-0.2533,-15.43,44.42,0.21,346.49,41.54,-112.34,184204,2016-03-24 12:48:15:245
11.0621,-9.4329,-10.1841,6.1247,-7.3191,-2.2561,5.1575,-1.7755,-7.3028,0.2164,0.2676,0.6396,-14.24,43.78,-1.83,341.43,48.27,-110.22,184304,2016-03-24 12:48:15:345
4.8674,-6.0691,-0.4162,6.2597,-7.3237,-1.8305,7.3635,0.5076,-1.191,0.9087,0.6105,-0.4948,-13.31,44.98,-2.74,341.32,48.27,-110.22,184403,2016-03-24 12:48:15:444
