ACCELEROMETER X (m/s²),ACCELEROMETER Y (m/s²),ACCELEROMETER Z (m/s²),GRAVITY X (m/s²),GRAVITY Y (m/s²),GRAVITY Z (m/s²),LINEAR ACCELERATION X (m/s²),LINEAR ACCELERATION Y (m/s²),LINEAR ACCELERATION Z (m/s²),GYROSCOPE X (rad/s),GYROSCOPE Y (rad/s),GYROSCOPE Z (rad/s),MAGNETIC FIELD X (μT),MAGNETIC FIELD Y (μT),MAGNETIC FIELD Z (μT),ORIENTATION Z (azimuth °),ORIENTATION X (pitch °),ORIENTATION Y (roll °),Time since start in ms ,YYYY-MO-DD HH-MI-SS_SSS
7.0161,4.1935,-5.7727,7.0079,3.8484,-5.6788,-0.1586,0.2278,0.1208,0.0086,0.0024,0.0053,62.07,-69.87,4.12,152.87,-22.93,-129.02,139305,2016-03-24 16:59:00:077
7.0764,4.2014,-5.7191,6.9892,3.896,-5.6694,-0.0112,0.245,0.0072,-0.0041,-0.005,0.0104,62.71,-70.3,3.57,152.63,-23.27,-129.04,139404,2016-03-24 16:59:00:176
6.9777,4.1559,-5.6546,6.9825,3.9136,-5.6655,-0.1072,0.1618,0.0792,0.0044,-0.0034,0.0079,62.94,-68.96,3.79,152.37,-23.41,-129.05,139504,2016-03-24 16:59:00:276
7.0788,4.2016,-5.6978,6.9689,3.9543,-5.654,-0.0469,0.2141,0.0452,7.0000E-04,2.0000E-04,0.0025,62.06,-70.37,4.25,152.91,-23.78,-129.05,139604,2016-03-24 16:59:00:376
6.9866,4.134,-5.7228,6.9596,3.978,-5.6488,-0.0119,0.1002,0.0257,0.01,-0.0021,0,61.7,-70.8,4.25,153.17,-23.93,-129.06,139704,2016-03-24 16:59:00:476
6.9586,4.1737,-5.6773,6.9567,3.9878,-5.6456,-0.0554,0.0946,0.0359,0.0106,0.0069,-0.0019,61.85,-71.18,4.39,153.17,-23.93,-129.06,139804,2016-03-24 16:59:00:576
7.0479,4.1718,-5.7086,6.9475,4.0159,-5.6369,-0.0227,0.1247,0.0475,0.002,-0.0017,2.0000E-04,61.92,-70.12,4.48,152.93,-24.08,-129.07,139904,2016-03-24 16:59:00:676
7.0483,4.1535,-5.6999,6.9456,4.0223,-5.6347,4.0000E-04,0.0752,0.0479,0.0092,-0.0028,-9.0000E-04,62.04,-69.32,4.03,152.68,-24.21,-129.05,140004,2016-03-24 16:59:00:776
7.0006,4.2057,-5.608,6.9381,4.041,-5.6306,-0.03,0.1002,0.0413,0.0022,0.0055,-0.0022,61.83,-70.08,3.99,152.93,-24.25,-129.08,140105,2016-03-24 16:59:00:877
7.0242,4.1804,-5.6652,6.9314,4.0543,-5.6292,-0.0506,0.1068,0.0251,0.0016,-0.0069,-3.0000E-04,62.04,-70.32,4.01,152.95,-24.33,-129.06,140204,2016-03-24 16:59:00:976
7.0069,4.187,-5.7121,6.928,4.0587,-5.6302,0.0293,0.0492,0.0193,0.0091,-9.0000E-04,-5.0000E-04,61.94,-70.5,4.66,152.69,-24.45,-129.1,140305,2016-03-24 16:59:01:077
6.9752,4.1901,-5.6839,6.9296,4.0628,-5.6254,0.0185,0.0517,0.0169,0.0028,0.0092,-0.0022,61.89,-70.72,3.67,153.2,-24.47,-129.07,140404,2016-03-24 16:59:01:176
7.0313,4.1878,-5.754,6.9209,4.0721,-5.6293,-0.0216,0.0485,0.0049,0.009,0.005,0.0012,62.97,-70.3,5.65,151.68,-24.53,-129.12,140505,2016-03-24 16:59:01:277
7.0584,4.1651,-5.7403,6.9204,4.0718,-5.6302,0.0096,0.037,0.0155,0.0114,-0.0092,-9.0000E-04,62.5,-70.32,5.33,152.17,-24.53,-129.13,140605,2016-03-24 16:59:01:377
7.0042,4.1125,-5.6014,6.9181,4.0796,-5.6274,-0.018,0.0402,0.0415,0.0018,-0.0094,-3.0000E-04,61.98,-71.33,5.21,152.68,-24.58,-129.13,140704,2016-03-24 16:59:01:476
7.0122,4.1747,-5.6076,6.9215,4.079,-5.6236,0.0062,-0.0111,0.094,0.0071,-0.0016,0.0018,61.04,-71.02,4.91,152.94,-24.58,-129.13,140804,2016-03-24 16:59:01:576
7.0055,4.1721,-5.6968,6.9212,4.0838,-5.6205,0.0186,0.0189,0.0183,0.0104,9.0000E-04,8.0000E-04,63.18,-70.51,4.74,152.45,-24.61,-129.11,140904,2016-03-24 16:59:01:676
6.959,4.2015,-5.6671,6.9181,4.086,-5.6226,0.0092,0.0092,0.01,0.0019,0.008,-0.0034,63.19,-69.84,4.68,152.21,-24.62,-129.07,141006,2016-03-24 16:59:01:778
7.077,4.2082,-5.7942,6.9143,4.0889,-5.6253,-0.0166,0.0568,0.0096,0.0076,-0.0027,0.0018,62.82,-71.39,4.28,152.94,-24.62,-129.1,141105,2016-03-24 16:59:01:877
7.0854,4.1191,-5.7669,6.9176,4.0866,-5.6229,0.0018,-0.0011,-0.045,0.0052,0.0118,-0.0024,62.28,-70.26,4.89,152.44,-24.63,-129.11,141204,2016-03-24 16:59:01:976
6.9715,4.1288,-5.6293,6.9171,4.0895,-5.6214,-0.0365,0.0091,0.0575,7.0000E-04,-2.0000E-04,-0.0015,61.33,-70.99,5.48,152.95,-24.63,-129.11,141304,2016-03-24 16:59:02:076
7.0117,4.1658,-5.5962,6.9177,4.0882,-5.6216,0.0073,0.0629,-0.0149,0.0124,0.0033,3.0000E-04,63.57,-71.1,5.41,152.2,-24.64,-129.1,141404,2016-03-24 16:59:02:176
6.9469,4.1802,-5.6997,6.9173,4.0907,-5.6203,0.0045,0.0321,0.0123,0.0039,3.0000E-04,-7.0000E-04,63.18,-69.91,4.4,152.69,-24.65,-129.09,141505,2016-03-24 16:59:02:277
6.9621,4.2587,-5.7299,6.9149,4.088,-5.6252,-0.0203,0.0125,0.0072,0.0073,-0.0051,1.0000E-04,61.4,-70.28,5.4,152.7,-24.64,-129.1,141604,2016-03-24 16:59:02:376
7.0871,4.1956,-5.8106,6.9157,4.0917,-5.6216,0.013,0.0637,0.0149,0.0084,0.0041,4.0000E-04,61.99,-70.49,5.71,151.94,-24.66,-129.11,141705,2016-03-24 16:59:02:477
7.0453,4.1231,-5.7942,6.9167,4.0903,-5.6214,-0.0344,-0.0047,-0.0446,0.0013,-0.0025,0.0019,61.38,-71.12,5.13,152.95,-24.65,-129.1,141804,2016-03-24 16:59:02:576
7.0344,4.1535,-5.703,6.917,4.0907,-5.6207,-0.0164,0.0099,0.0375,0.0039,-0.002,0.0019,61.96,-71.05,4.88,152.7,-24.65,-129.1,141904,2016-03-24 16:59:02:676
7.0211,4.1735,-5.5513,6.9199,4.089,-5.6183,0.002,0.026,-0.0627,0.0038,0.0084,-2.0000E-04,62.11,-70.44,5,152.46,-24.65,-129.06,142004,2016-03-24 16:59:02:776
7.0479,4.1557,-5.6531,6.9187,4.0928,-5.617,-0.0375,0.0276,0.0487,0.0017,-0.0043,0.0031,61.93,-70.53,4.96,152.72,-24.67,-129.07,142104,2016-03-24 16:59:02:876
7.0163,4.2276,-5.7005,6.9219,4.089,-5.6158,0.0054,0.0609,0.041,0.0075,0.0017,0.0017,62.05,-69.62,5.05,152.47,-24.64,-129.05,142205,2016-03-24 16:59:02:977
6.9832,4.161,-5.6959,6.9241,4.093,-5.6103,-0.0113,0.0359,0.0551,0.0016,0.003,0.0025,61.52,-70.6,5.07,152.75,-24.67,-129.02,142304,2016-03-24 16:59:03:076
7.0432,4.1368,-5.6498,6.9251,4.0906,-5.6108,0.0087,0.0056,0.014,0.0064,0.002,0.0046,61.86,-70.01,5.64,151.99,-24.67,-129.01,142404,2016-03-24 16:59:03:176
7.0207,4.1794,-5.6945,6.9299,4.0897,-5.6054,0.0098,0.0117,0.0361,0.0025,0.0061,0.0036,62.48,-70.7,5.85,152.26,-24.65,-129,142505,2016-03-24 16:59:03:277
7.0393,4.1345,-5.5863,6.9277,4.0888,-5.6088,-0.0148,0.0118,-0.0082,0.0043,-0.0108,0.0023,62.79,-71.36,5.28,152.52,-24.65,-128.97,142604,2016-03-24 16:59:03:376
7.0447,4.203,-5.6701,6.9287,4.0879,-5.6082,-5.0000E-04,0.0238,0.0082,0.0039,5.0000E-04,0.0029,62.09,-69.96,5.69,152,-24.64,-128.99,142704,2016-03-24 16:59:03:476
7.0178,4.1719,-5.7419,6.9272,4.0918,-5.6073,-0.0089,0.0492,-0.031,-0.0038,0.0095,0.001,62.18,-71.68,4.85,153.01,-24.64,-128.99,142804,2016-03-24 16:59:03:576
6.9687,4.1724,-5.6746,6.9278,4.0905,-5.6074,-0.0021,-0.0162,0.0107,0.0103,0.0079,-0.0023,60.53,-71.51,4.1,153.77,-24.67,-128.98,142904,2016-03-24 16:59:03:676
7.0453,4.1634,-5.6712,6.9268,4.0918,-5.6078,-0.009,0.0234,0.0215,0.0103,0.0079,-0.0023,60.53,-71.51,4.1,153.77,-24.67,-128.98,143004,2016-03-24 16:59:03:776
7.0552,4.1625,-5.6859,6.9224,4.0978,-5.6088,0.0175,0.0422,-0.0045,0.0011,0.0061,-0.0015,60.41,-72.64,4.9,153.77,-24.68,-128.99,143104,2016-03-24 16:59:03:876
7.0576,4.1084,-5.5993,6.9229,4.0955,-5.6098,0.035,0.0062,0.0123,0.0064,-0.0191,-0.0041,62.6,-71.09,4.84,152.5,-24.68,-129.02,143204,2016-03-24 16:59:03:976
7.0295,4.1596,-5.6498,6.9278,4.0913,-5.6069,0.0039,-0.0072,0.0098,0.0085,-0.0052,-0.0033,62.33,-70.29,4.85,152.5,-24.67,-128.99,143304,2016-03-24 16:59:04:076
7.0314,4.2093,-5.7305,6.9237,4.091,-5.6122,0.0059,0.0251,-0.0485,0.0039,0.0064,-0.0022,61.06,-68.96,5.35,152.48,-24.66,-129.03,143404,2016-03-24 16:59:04:176
6.9997,4.178,-5.6399,6.9233,4.0885,-5.6145,0.0254,0.0021,0.0115,0.0074,0.0024,1.0000E-04,62.75,-70.81,4.61,152.48,-24.64,-129.04,143505,2016-03-24 16:59:04:277
7.012,4.1611,-5.6589,6.9241,4.0908,-5.6119,-0.0178,0.0236,0.0517,0.0111,-9.0000E-04,-0.0018,62.66,-69.93,4.78,152.22,-24.64,-129.04,143604,2016-03-24 16:59:04:376
7.0612,4.171,-5.7501,6.921,4.0951,-5.6125,-0.0075,0.0158,0.0131,0.0051,-0.002,-0.0031,62.26,-70.1,4.68,152.48,-24.67,-129.03,143704,2016-03-24 16:59:04:476
7.0021,4.1651,-5.6979,6.9216,4.0896,-5.6158,0.0078,0.0101,-0.0262,0.0097,-0.0015,-4.0000E-04,62.02,-69.84,5.04,152.47,-24.65,-129.05,143804,2016-03-24 16:59:04:576
6.9949,4.1648,-5.6168,6.9185,4.0931,-5.617,-0.0156,0.0389,0.0023,0.0047,-0.0011,-0.0015,62.61,-70.95,4.81,152.47,-24.67,-129.07,143904,2016-03-24 16:59:04:676
6.9961,4.1728,-5.6402,6.9178,4.0952,-5.6164,-0.0071,0.0241,0.0441,0.0077,-0.0029,-8.0000E-04,62.79,-71.55,3.83,153.21,-24.67,-129.07,144004,2016-03-24 16:59:04:776
6.9847,4.1703,-5.6333,6.9173,4.0925,-5.619,0.0095,0.0057,-0.0269,0.0061,0.0016,-3.0000E-04,62,-71.3,4.44,153.2,-24.67,-129.09,144105,2016-03-24 16:59:04:877
7.0459,4.1994,-5.6594,6.92,4.0956,-5.6133,-0.0047,0.0268,5.0000E-04,0.0023,-0.0017,0.0023,62.06,-71.21,4.32,153.23,-24.69,-129.05,144204,2016-03-24 16:59:04:976
7.0483,4.1578,-5.725,6.9204,4.0957,-5.6128,0.0157,0.0329,0.0147,0.0067,-0.0019,0.0019,62.28,-71.24,5.23,152.73,-24.69,-129.04,144304,2016-03-24 16:59:05:076
7.034,4.129,-5.6039,6.9236,4.0927,-5.6111,-0.0184,-0.0106,-0.0146,0.0051,0.0023,8.0000E-04,63,-71.53,5.64,152.26,-24.67,-129.02,144404,2016-03-24 16:59:05:176
7.0262,4.138,-5.606,6.9244,4.0941,-5.6091,-0.0029,0.0213,0.0356,0.0051,-2.0000E-04,-4.0000E-04,62.45,-70.7,5.75,152.25,-24.68,-129.01,144504,2016-03-24 16:59:05:276
7.0048,4.2101,-5.6433,6.9254,4.0954,-5.6068,0.011,0.0196,-0.0193,-4.0000E-04,0.0031,-0.0014,62.44,-70.68,4.86,152.75,-24.68,-129,144604,2016-03-24 16:59:05:376
6.9841,4.2273,-5.6774,6.9258,4.0988,-5.6039,0.0072,0.022,0.0055,-0.0031,0.0015,1.0000E-04,62.3,-70.74,4.77,152.76,-24.68,-128.99,144705,2016-03-24 16:59:05:477
7.034,4.1513,-5.8058,6.927,4.0996,-5.6018,-0.002,0.0201,0.0245,0.0015,0.0047,0.0031,62.7,-70.54,6.13,152.03,-24.7,-128.98,144805,2016-03-24 16:59:05:577
7.0365,4.109,-5.7088,6.9259,4.0984,-5.604,0.0029,0.0087,-0.041,-0.0011,-0.002,-1.0000E-04,61.96,-70.8,5.51,152.28,-24.71,-128.96,144905,2016-03-24 16:59:05:677
7.0799,4.0994,-5.6663,6.9662,4.1063,-5.5481,0.1547,0.0076,0.1576,0.0779,0.1013,-0.092,63.89,-70.44,5.99,151.58,-24.71,-128.86,145004,2016-03-24 16:59:05:776
6.5797,3.9404,-6.1095,6.9577,4.1233,-5.5461,-0.0266,-0.0068,-0.1074,0.0109,0.0063,-0.0649,63.06,-69.31,5.24,152.23,-24.86,-128.56,145104,2016-03-24 16:59:05:876
6.869,4.4467,-5.712,6.8682,4.2038,-5.597,0.0219,-0.242,-0.1892,-0.1914,-0.117,0.0085,62.03,-67.97,3.88,152.46,-25.05,-129.08,145204,2016-03-24 16:59:05:976
6.9845,5.1412,-4.7103,6.89,4.486,-5.3455,-0.0525,0.2392,0.3073,-0.4045,0.0965,-0.0137,61.56,-73.6,0.81,155.67,-26.24,-128.72,145304,2016-03-24 16:59:06:076
6.3854,4.9012,-5.211,6.91,4.5194,-5.2912,0.1882,0.7704,0.7647,-0.1105,0.0926,-0.0458,61.86,-77.49,-1.94,158.48,-27.44,-127.44,145404,2016-03-24 16:59:06:176
6.687,4.8002,-5.6382,6.9039,4.3641,-5.4278,-0.6453,0.3602,0.0297,0.1623,-0.0953,0.1159,61.86,-76.45,-2.28,158.18,-27.06,-127.62,145505,2016-03-24 16:59:06:277
7.0523,4.1471,-5.7093,6.9024,4.3067,-5.4754,0.3946,0.4523,0.4489,0.1135,-0.1111,0.0975,60.42,-77.25,-0.33,157.59,-26.42,-128.17,145605,2016-03-24 16:59:06:377
7.0887,4.4184,-5.4995,6.8889,4.2393,-5.5445,0.0293,0.2174,0.1316,0.1589,0.005,-0.0405,61.16,-74.5,1.52,155.7,-25.84,-128.6,145704,2016-03-24 16:59:06:476
6.8481,4.5724,-5.5266,6.8831,4.2182,-5.5678,-0.2394,0.1911,-0.1551,0.0931,-0.0043,-0.0115,62.45,-72.34,3.26,154.13,-25.61,-128.83,145804,2016-03-24 16:59:06:576
6.9931,4.646,-5.3191,6.8833,4.2445,-5.5475,-0.0306,0.3098,0.2035,-0.0144,-0.0156,0.0278,62.22,-70.8,2.92,153.87,-25.65,-128.87,145904,2016-03-24 16:59:06:676
6.8056,4.7853,-5.5038,6.8755,4.2838,-5.5269,-0.0089,0.3564,0.1575,0.0073,-0.0035,-0.0016,61.82,-72.78,3.37,154.35,-25.65,-128.87,146004,2016-03-24 16:59:06:776
6.7315,4.9441,-5.4726,6.8414,4.3785,-5.495,-0.1198,0.4035,0.1057,-5.0000E-04,0.0023,0.002,62.07,-72.21,4.02,153.71,-26.52,-128.77,146104,2016-03-24 16:59:06:876
6.7136,4.9356,-5.3755,6.8228,4.4272,-5.4789,-0.1767,0.4449,0.0981,-9.0000E-04,0.005,0.0117,61.77,-71.77,3.98,153.71,-26.52,-128.77,146204,2016-03-24 16:59:06:976
6.7414,4.9924,-5.3552,6.7893,4.5141,-5.4497,-0.1609,0.3912,0.1241,-0.0084,0.0045,0.0078,61.99,-74.08,3.42,154.71,-27.41,-128.75,146304,2016-03-24 16:59:07:076
6.7653,5.1989,-5.3214,6.7712,4.5718,-5.424,-0.1204,0.4661,0.1713,-0.0045,-0.0025,-0.0024,62.39,-73.98,3.67,154.22,-27.41,-128.75,146405,2016-03-24 16:59:07:177
6.5177,5.6033,-5.2616,6.703,4.7195,-5.3821,-0.2457,0.6469,0.145,-0.0046,0.004,-0.0119,61.3,-73.78,3.29,154.99,-28.22,-128.73,146505,2016-03-24 16:59:07:277
6.3473,5.9682,-5.1753,6.6524,4.8296,-5.3471,-0.2857,0.8929,0.1611,-0.0064,0.0058,-0.0178,61.55,-74.84,2.59,154.96,-28.77,-128.76,146605,2016-03-24 16:59:07:377
6.2925,6.2718,-5.1212,6.576,4.982,-5.3016,-0.367,1.1887,0.2705,-0.0063,-0.0033,-0.0168,62.66,-75.06,1.94,155.18,-30.53,-128.88,146705,2016-03-24 16:59:07:477
6.1501,6.358,-5.1464,6.5494,5.0268,-5.2922,-0.4983,1.2058,0.2609,0.0098,0.0052,-0.0099,62.42,-74.09,2.52,154.7,-30.7,-128.91,146804,2016-03-24 16:59:07:576
6.114,6.3269,-5.2335,6.5384,5.0443,-5.2891,-0.5465,1.2081,0.2272,0.0076,-7.0000E-04,0,61.96,-75.36,1.26,155.89,-30.84,-128.94,146905,2016-03-24 16:59:07:677
6.1236,6.3448,-4.9869,6.4116,5.2676,-5.2264,-0.4513,0.9348,0.2101,0.0021,0.0106,0.0101,61.69,-75.75,3.84,154.52,-31.78,-129.12,147004,2016-03-24 16:59:07:776
6.305,6.4385,-5.1206,6.3639,5.3657,-5.1846,-0.3931,0.8682,0.3095,0.0048,-0.0011,0.0061,61.36,-74.51,2.96,155,-32.49,-129.18,147104,2016-03-24 16:59:07:876
6.2842,6.3858,-5.1148,6.2839,5.5149,-5.1253,-0.1719,0.7033,0.155,0.005,-0.0093,0.009,61.68,-74.42,2.9,154.56,-33.73,-129.15,147204,2016-03-24 16:59:07:976
6.2255,6.2501,-5.1839,6.2424,5.5664,-5.1203,-0.2373,0.4667,0.0568,0.006,-0.0168,-0.0069,62.71,-75.44,2.58,154.42,-34.58,-129.36,147304,2016-03-24 16:59:08:076
5.9881,6.2198,-5.0976,6.1775,5.6678,-5.0878,-0.2183,0.4408,0.0612,-0.0046,0.0029,-0.0021,61.63,-73.49,3.9,153.64,-35.31,-129.47,147404,2016-03-24 16:59:08:176
6.3437,6.2813,-5.0831,6.1447,5.717,-5.0723,-0.3897,0.3039,0.1094,-0.0037,0.0238,-0.0081,61.11,-74.69,3.83,154.29,-35.31,-129.47,147504,2016-03-24 16:59:08:276
6.5254,6.2185,-5.1822,6.1252,5.7714,-5.0343,0.0934,0.3146,0.0753,-0.0084,-0.0176,0.0094,62.71,-74.47,2.4,154.62,-35.91,-129.5,147604,2016-03-24 16:59:08:376
6.2319,6.0505,-5.2432,6.1308,5.7777,-5.0202,0.1378,0.2292,-0.0397,-0.0016,-0.0039,0.0159,63.39,-73.94,4.1,153.64,-36.05,-129.42,147704,2016-03-24 16:59:08:476
6.5154,6.2191,-5.1782,6.113,5.8048,-5.0106,-0.0899,0.0355,-0.0614,-0.0036,0.0164,-0.0073,62.46,-74.65,3,154.65,-36.23,-129.28,147804,2016-03-24 16:59:08:576
6.2968,6.011,-4.8678,6.1402,5.814,-4.9664,-0.1959,-0.0801,0.2792,0.0063,0.0435,0.0111,63.57,-73.31,4.74,152.95,-36.36,-128.97,147904,2016-03-24 16:59:08:676
6.5073,5.9928,-5.1157,6.1649,5.8044,-4.947,0.3177,0.0293,0.1597,-0.0089,-0.018,0.0166,63.1,-74.83,4.52,153.58,-36.36,-128.97,148004,2016-03-24 16:59:08:776
6.2073,5.8175,-5.2271,6.1794,5.7649,-4.9751,0.0871,-0.012,-0.0774,0.0382,0.0374,0.0022,63.46,-74.24,4.19,153.91,-36.15,-128.93,148105,2016-03-24 16:59:08:877
6.5348,5.9751,-5.1817,6.1824,5.7451,-4.9941,-0.1739,-0.1614,-0.0645,0.0178,0.0208,0.0162,62.37,-72.37,4.35,153.75,-36,-128.84,148204,2016-03-24 16:59:08:976
6.5166,6.02,-5.1942,6.1855,5.7469,-4.9884,-0.0625,0.0554,0.0518,-0.009,0.0098,0.0057,61.43,-74,6.66,152.83,-35.88,-128.88,148304,2016-03-24 16:59:09:076
6.313,5.9711,-5.1707,6.195,5.7395,-4.9851,0.0495,-0.0013,-0.0273,0.0206,0.0294,-0.0057,61.61,-74.34,6.1,153.16,-35.82,-128.82,148404,2016-03-24 16:59:09:176
6.2983,5.642,-4.8133,6.2296,5.7176,-4.967,0.0224,-0.0788,0.1257,-0.0072,0.0134,0.0357,61.84,-75.04,6.26,153.52,-35.66,-128.57,148505,2016-03-24 16:59:09:277
7.3224,5.653,-5.1727,6.2376,5.704,-4.9726,-0.2152,-0.2859,0.2887,0.0166,-0.0291,0.0131,62.37,-75.88,5.83,153.73,-35.66,-128.57,148604,2016-03-24 16:59:09:376
6.2561,5.3325,-5.1127,6.2568,5.6385,-5.023,-0.0958,-0.3389,0.0594,0.0318,-0.0108,-0.0102,62.41,-75.74,5.3,154.16,-35.1,-128.76,148704,2016-03-24 16:59:09:476
6.6716,6.0188,-5.4716,6.2314,5.6164,-5.079,0.0963,-0.0546,-0.226,0.0647,-0.0608,-0.0405,63.22,-74.94,3.91,154.01,-34.94,-129.18,148805,2016-03-24 16:59:09:577
6.3787,5.2837,-5.2249,6.248,5.5801,-5.0985,-0.2192,-0.3439,-0.1212,-0.0078,0.066,0.0219,63.81,-73.39,3.9,153.28,-34.88,-129.33,148904,2016-03-24 16:59:09:676
6.6848,5.4788,-5.2721,6.2782,5.5541,-5.0898,0.0241,-0.2987,0.1192,0.0045,-0.0095,0.003,61.51,-73.62,3.57,154.01,-34.68,-129.22,149004,2016-03-24 16:59:09:776
6.8115,5.4602,-5.0605,6.3412,5.5091,-5.0605,0.1772,-0.232,0.1286,0.0054,0.0178,-0.0028,62.35,-74.74,4.71,153.89,-34.33,-128.9,149104,2016-03-24 16:59:09:876
6.2449,5.5731,-5.1451,6.3667,5.4917,-5.0475,0.2625,-0.1232,0.1647,0.0209,0.0267,-0.0235,62.37,-75.39,3.35,155.06,-34.18,-128.59,149204,2016-03-24 16:59:09:976
6.285,5.855,-5.277,6.3465,5.4956,-5.0686,-0.3022,0.0074,-0.0742,0.0115,0.0195,-0.0113,62.88,-73.23,2.74,154.41,-34.08,-128.61,149305,2016-03-24 16:59:10:077
6.9412,6.0508,-5.3045,6.3221,5.5257,-5.0664,-0.3018,0.0643,0.0221,-0.011,0.0462,0.0229,61.71,-73.4,3.92,154.11,-34.2,-128.63,149405,2016-03-24 16:59:10:177
6.314,5.7879,-5.121,6.3199,5.5395,-5.054,0.1176,0.3379,0.0733,-0.0066,-0.0368,0.023,62.81,-73.6,4.67,153.59,-34.39,-128.65,149505,2016-03-24 16:59:10:277
6.1959,5.8636,-5.2688,6.2997,5.5432,-5.0751,-0.2734,0.1054,-0.0501,0.0362,0.0429,-0.0023,61.88,-73.12,3.01,154.5,-34.42,-128.86,149604,2016-03-24 16:59:10:376
6.083,5.593,-4.9049,6.3051,5.5551,-5.0554,-0.2149,0.1322,0.1577,0.0148,0.0201,0.0279,61.92,-72.47,2.41,154.87,-34.5,-128.72,149704,2016-03-24 16:59:10:476
6.8094,6.0393,-5.1643,6.3032,5.5684,-5.0431,0.0214,0.208,0.0408,0.0121,-0.0105,0.0073,62.41,-72.85,3.36,154.59,-34.54,-128.68,149804,2016-03-24 16:59:10:576
6.3734,5.9622,-4.9523,6.331,5.5694,-5.0071,0.4169,0.3391,0.0571,-0.004,-0.0062,0.0343,60.78,-73.16,2.88,155,-34.61,-128.34,149904,2016-03-24 16:59:10:676
5.8793,5.5475,-5.0238,6.3083,5.603,-4.9982,-0.5883,-0.0283,0.1804,0.0537,0.0226,-0.0045,60.97,-74.99,2.18,156.01,-34.76,-128.18,150005,2016-03-24 16:59:10:777
6.6083,5.683,-4.9199,6.2908,5.5974,-5.0265,-0.5978,-0.112,0.0449,0.0339,0.0158,0.0365,60.2,-73.28,1.78,155.59,-34.8,-128.63,150104,2016-03-24 16:59:10:876
6.9001,5.8237,-5.1866,6.3318,5.5517,-5.0257,0.2353,0.0302,-0.0252,0.0287,-0.0214,0.0415,62.57,-74.28,1.23,155.69,-34.73,-128.49,150204,2016-03-24 16:59:10:976
6.1431,5.5244,-4.6905,6.3489,5.5363,-5.021,0.423,0.1766,0.0659,0.0246,0.0197,0.0197,62.37,-73.49,1.66,155.3,-34.37,-128.34,150304,2016-03-24 16:59:11:076
6.4044,5.6335,-4.9548,6.328,5.5339,-5.0499,0.0154,-0.0269,0.0827,0.0221,-0.0372,-0.0315,62.62,-72.46,2.15,154.82,-34.31,-128.42,150405,2016-03-24 16:59:11:177
7.4385,6.0047,-5.4166,6.2996,5.5538,-5.0637,-0.0971,0.056,-0.0206,-0.0092,-0.0323,-0.0188,61.86,-71.25,3.18,154.22,-34.35,-128.59,150505,2016-03-24 16:59:11:277
6.8233,5.8434,-5.5486,6.2897,5.542,-5.0888,0.8853,0.403,-0.1311,0.0062,-0.0642,-0.0208,59.36,-72.44,4.18,154.39,-34.41,-128.97,150604,2016-03-24 16:59:11:376
6.4244,5.6921,-5.2054,6.2762,5.574,-5.0705,-0.038,-0.0467,-0.2416,-0.0248,0.0466,-0.0458,60.4,-74.75,3.01,155.27,-34.47,-129.05,150705,2016-03-24 16:59:11:477
6.0904,5.4761,-5.1979,6.28,5.5922,-5.0457,-0.1664,-0.1274,0.1032,-0.0195,0.0379,-0.0172,61.11,-76.04,3.13,155.38,-34.77,-128.78,150805,2016-03-24 16:59:11:577
7.0163,5.9868,-5.5211,6.2635,5.6235,-5.0315,1.819,0.5444,-0.0119,-0.0145,-0.0115,-0.0123,61.21,-77.7,2.27,156.25,-34.9,-128.82,150904,2016-03-24 16:59:11:676
5.7686,5.2646,-5.2682,6.2651,5.6235,-5.0294,0.4649,0.0908,-0.3799,0.1004,0.1002,-0.0921,61.55,-73.5,0.85,155.76,-34.99,-128.78,151004,2016-03-24 16:59:11:776
6.4744,5.6805,-5.9216,6.2361,5.6149,-5.0749,-0.1466,-0.2063,-0.192,-0.0078,-0.174,0.0543,62.63,-72.4,2.15,154.41,-34.93,-129.14,151104,2016-03-24 16:59:11:876
7.4459,5.998,-5.1764,6.2357,5.5962,-5.096,1.8319,0.2871,-0.0094,-0.0482,-0.0339,0.0421,62.56,-74.32,2.67,154.33,-34.93,-129.14,151204,2016-03-24 16:59:11:976
6.3308,5.2021,-5.176,6.2667,5.5832,-5.0722,-0.5446,-0.7376,-0.0091,0.104,0.0478,-0.134,62.3,-73.28,2.63,154.43,-34.7,-128.99,151304,2016-03-24 16:59:12:076
6.8103,5.7831,-5.5487,6.244,5.5955,-5.0866,-0.0229,-0.1559,-0.1951,-0.0388,-0.0385,0.0129,62.2,-72.23,2.73,154.21,-34.7,-128.99,151404,2016-03-24 16:59:12:176
6.7682,5.1727,-5.464,6.2917,5.5801,-5.0445,0.3588,-0.3707,0.0047,-0.1007,-0.0014,0.101,62.55,-74.6,3.74,154.11,-34.76,-129,151504,2016-03-24 16:59:12:276
6.5625,5.5272,-5.6069,6.281,5.5762,-5.0622,0.2322,-0.5464,-0.0822,0.0441,0.0709,-0.0323,64.01,-75.41,5.2,153.55,-34.68,-128.72,151604,2016-03-24 16:59:12:376
6.8868,5.0528,-5.2793,6.3003,5.5448,-5.0726,0.0413,-0.3577,-0.2758,-0.038,0.0648,0.0147,64.07,-74.18,4.7,153.23,-34.66,-128.91,151705,2016-03-24 16:59:12:477
6.8857,5.2935,-5.8454,6.3397,5.4997,-5.0726,0.3583,-0.4495,-0.1101,-0.0269,0.0133,-0.0057,62.68,-73.75,4.49,153.99,-34.43,-128.84,151804,2016-03-24 16:59:12:576
6.38,5.1735,-5.4553,6.4271,5.4025,-5.0671,0.3513,-0.5312,-0.2574,-0.0305,0.0708,-0.0134,63.49,-74.11,4.54,153.82,-33.43,-128.25,151905,2016-03-24 16:59:12:677
6.7109,5.4927,-5.4256,6.3932,5.4057,-5.1063,0.0208,0.0213,0.0044,0.0231,0.0079,-0.0321,63.83,-71.87,5.25,152.99,-33.41,-128.56,152004,2016-03-24 16:59:12:776
7.0826,5.449,-5.0831,6.4256,5.3797,-5.0932,0.5139,-0.0416,-0.2479,-0.0392,-0.0181,0.0163,64.13,-72.62,5.6,152.8,-33.27,-128.4,152104,2016-03-24 16:59:12:876
6.6229,4.874,-5.218,6.4644,5.3023,-5.1252,-0.0811,-0.5254,0.0026,0.0526,0.013,-0.0257,64.27,-73.9,5.51,153.02,-32.73,-128.41,152204,2016-03-24 16:59:12:976
6.6123,5.0466,-5.8737,6.4784,5.2609,-5.1501,0.1508,-0.3451,-0.1561,0.0104,-0.0063,-0.0096,64.95,-73.76,5.99,152.77,-32.44,-128.48,152304,2016-03-24 16:59:13:076
6.276,4.9029,-5.1606,6.4936,5.1891,-5.2035,-0.321,-0.3213,0.156,0.0163,-0.0014,0.0231,63.69,-72.23,6.04,152.41,-31.95,-128.71,152404,2016-03-24 16:59:13:176
6.8894,5.0533,-5.2032,6.5039,5.1477,-5.2317,0.2046,-0.2396,0.2081,0.0122,-0.1019,0.035,64.33,-73.26,6.49,152.64,-31.95,-128.71,152504,2016-03-24 16:59:13:276
5.7668,4.5518,-5.2897,6.5429,5.098,-5.2318,-0.8851,-0.6703,0.0088,0.0849,0.0577,-0.0267,62.97,-72.39,4.92,153.16,-31.32,-128.65,152604,2016-03-24 16:59:13:376
7.0412,5.2179,-5.5422,6.5437,5.0821,-5.2462,-0.0605,-0.1889,-0.3615,0.0193,-0.0089,0.0125,63.05,-71.49,4.23,153.39,-31.21,-128.72,152704,2016-03-24 16:59:13:476
6.6518,4.7315,-5.0504,6.5931,5.0481,-5.2172,-0.1197,-0.51,0.1629,0.0159,-0.0291,0.0167,64.93,-72.62,6.55,152.11,-30.98,-128.35,152804,2016-03-24 16:59:13:576
6.8599,5.0367,-6.3975,6.5404,5.0343,-5.2962,0.076,-0.347,-0.1189,0.0853,-0.1225,-0.0488,64.52,-72.03,7.02,151.88,-30.98,-128.35,152904,2016-03-24 16:59:13:676
6.9292,4.8484,-5.4805,6.5659,5.0398,-5.2593,0.1748,-0.1685,-0.4244,-0.0584,0.0864,0.0194,64.67,-71.06,6.8,151.2,-30.87,-129.16,153004,2016-03-24 16:59:13:776
6.9312,5.1096,-5.9133,6.5513,5.0512,-5.2665,0.304,-0.4905,0.0504,-0.0152,-0.1013,-0.0431,65.68,-72.08,7.11,151.43,-31,-128.8,153104,2016-03-24 16:59:13:876
6.5886,4.6386,-5.228,6.5612,5.0409,-5.264,0.0242,-0.1237,-0.5296,0.0169,0.0826,0.008,65.31,-70.41,5.27,152.06,-31.03,-128.97,153204,2016-03-24 16:59:13:976
6.966,4.774,-5.183,6.5705,5.0442,-5.2492,0.1353,-0.4783,0.0595,-0.0244,0.0286,-0.0033,64.31,-71.61,6.39,152.44,-30.96,-128.62,153304,2016-03-24 16:59:14:076
6.7799,4.5821,-5.2998,6.5931,5.0062,-5.2573,-0.0285,-0.4818,0.0274,0.0127,-0.008,-0.0066,64.57,-70.91,7.03,151.51,-30.7,-128.57,153405,2016-03-24 16:59:14:177
6.3734,4.4252,-5.4946,6.609,4.8888,-5.3471,-0.1713,-0.5111,-0.0528,0.0295,0.0146,0.0324,65.44,-69.66,5.91,151.65,-30.3,-128.78,153504,2016-03-24 16:59:14:276
6.981,4.6255,-5.6617,6.6311,4.8281,-5.3748,0.211,-0.4322,-0.0927,0.0295,0.0146,0.0324,65.44,-69.66,5.91,151.65,-30.3,-128.78,153604,2016-03-24 16:59:14:376
6.994,4.3827,-5.8808,6.6382,4.7501,-5.4352,-0.0085,-0.3703,-0.3658,-0.0359,0.0177,-0.0028,65.45,-69.57,7.84,150.33,-28.97,-129.31,153704,2016-03-24 16:59:14:476
7.1111,4.1736,-5.7404,6.663,4.6823,-5.4635,0.2378,-0.518,-0.1852,-0.0045,0.0029,0.0138,65.36,-68.47,6.66,150.26,-28.52,-129.35,153804,2016-03-24 16:59:14:576
7.0706,4.5904,-5.7228,6.6852,4.5838,-5.5198,0.1424,-0.3067,-0.058,0.0138,-0.0262,-0.0115,64.64,-70.52,6.38,151.41,-27.87,-129.55,153904,2016-03-24 16:59:14:676
6.7965,4.377,-5.6316,6.6893,4.5644,-5.5307,0.1714,-0.0846,-0.2267,-0.0038,-0.0264,-0.0164,66.41,-70.64,6.51,150.67,-27.74,-129.58,154004,2016-03-24 16:59:14:776
7.0484,4.43,-5.7802,6.6877,4.5103,-5.5769,-0.1266,-0.2891,0.1344,0.0125,-0.0424,0.0055,65.63,-69.73,6.07,150.75,-27.38,-129.82,154104,2016-03-24 16:59:14:876
6.9705,4.292,-5.6248,6.6781,4.4775,-5.6148,0.237,-0.0922,-0.3013,0.0039,-0.0645,0.0023,64.45,-69.43,6.3,150.96,-27.38,-129.82,154204,2016-03-24 16:59:14:976
7.1734,4.7945,-6.4346,6.6574,4.4139,-5.6892,0.2254,-0.0161,-0.2829,0.0227,-0.0443,0.0063,66.17,-69.01,7.4,149.6,-26.75,-130.52,154304,2016-03-24 16:59:15:076
7.0055,4.4526,-5.5641,6.6711,4.421,-5.6677,0.5495,0.1767,-0.2155,-0.0229,-0.0259,-0.0124,65.36,-68.74,6.86,149.83,-26.75,-130.52,154405,2016-03-24 16:59:15:177
6.7845,4.5238,-5.8341,6.6915,4.4272,-5.6386,-0.2864,-0.2496,0.0181,0.008,0.0158,-0.0361,64.13,-69.69,5.43,151.61,-26.84,-129.97,154505,2016-03-24 16:59:15:277
7.0279,4.3288,-5.3663,6.6901,4.4174,-5.648,-0.0284,-0.0069,-0.1319,0.0051,0.0068,0.0076,64.53,-68.52,5.24,151.03,-26.84,-130.12,154606,2016-03-24 16:59:15:378
6.169,4.1054,-5.3553,6.7784,4.3781,-5.5727,-0.1667,-0.234,0.5123,0.0358,0.0319,-0.0056,66.41,-68.76,4.55,150.99,-26.59,-129.72,154704,2016-03-24 16:59:15:476
7.8176,4.5999,-5.9125,6.7788,4.3615,-5.5852,0,-0.1636,-0.3466,-0.039,0.0147,0.0354,65.66,-67.88,5.17,150.81,-26.46,-129.56,154806,2016-03-24 16:59:15:578
6.1036,4.0015,-5.3751,6.8086,4.3751,-5.5383,0.8859,0.2175,-0.1061,-0.052,0.0557,0.0043,65.45,-69.58,5.03,151.6,-26.41,-129.49,154905,2016-03-24 16:59:15:677
7.9761,5.0185,-6.5555,6.7851,4.423,-5.529,0.8727,0.451,-0.7146,-0.0307,0.0376,-0.0464,66.25,-67.4,4.61,150.77,-26.81,-129.18,155004,2016-03-24 16:59:15:776
6.6122,4.0937,-5.1743,6.8366,4.4401,-5.4513,0.7334,0.295,0.1367,-0.1373,0.0924,0.0921,66.49,-68.93,5,151.3,-26.81,-129.18,155104,2016-03-24 16:59:15:876
7.2595,4.82,-6.6018,6.8061,4.4413,-5.4884,-0.075,-0.2112,-0.8048,0.0788,-0.0669,-0.103,66.57,-68.62,5,151.53,-26.89,-128.35,155204,2016-03-24 16:59:15:976
7.1994,4.117,-5.0562,6.8069,4.4464,-5.4832,0.3533,0.3518,-0.019,-0.0944,0.0197,0.0985,65.68,-68.25,4.93,151.21,-26.93,-128.88,155305,2016-03-24 16:59:16:077
7.2188,4.4821,-5.7977,6.7492,4.4348,-5.5634,0.3367,-0.1557,-0.044,0.0864,-2.0000E-04,-0.1017,63.7,-69.66,4.45,152.63,-26.87,-128.99,155404,2016-03-24 16:59:16:176
6.9408,4.3651,-5.8412,6.7596,4.4471,-5.5409,0.0132,0.0977,-0.437,-0.0534,0.104,0.0195,64.96,-69.02,4.23,151.95,-26.97,-129.34,155504,2016-03-24 16:59:16:276
7.2367,4.5432,-5.5726,6.7638,4.4621,-5.5236,0.4139,-0.1856,0.0865,0.015,-0.0617,-0.0519,66.62,-70.48,5.73,150.9,-27.01,-129.09,155605,2016-03-24 16:59:16:377
6.9392,4.365,-5.6689,6.7603,4.4613,-5.5287,0.3506,0.0298,-0.1579,-0.0089,0.0246,-0.0188,65.62,-70.84,4.4,152.28,-27.07,-129.24,155704,2016-03-24 16:59:16:476
7.4669,4.6416,-5.4623,6.7934,4.4423,-5.5034,0.458,0.0226,0.0852,0.0226,-0.0118,-0.0201,65.95,-69.85,5.06,151.5,-26.96,-129.29,155805,2016-03-24 16:59:16:577
7.2131,4.4524,-5.7399,6.8122,4.4365,-5.4847,0.215,-0.1619,-0.0414,-0.0138,0.0303,-0.0275,65.7,-70.7,4.74,151.91,-26.94,-129.01,155905,2016-03-24 16:59:16:677
6.911,4.3125,-5.5101,6.8204,4.444,-5.4684,-0.0473,-0.1133,-0.0231,-0.0092,0.0362,-0.0295,64.93,-70.45,3.39,153.04,-26.95,-128.72,156005,2016-03-24 16:59:16:777
6.9843,4.5905,-5.803,6.7916,4.4332,-5.5129,0.0636,0.0053,-0.126,0.0127,-0.0387,-0.0203,66.58,-69.83,4.86,151.39,-26.88,-129.07,156104,2016-03-24 16:59:16:876
6.634,4.2467,-5.5395,6.8046,4.4206,-5.507,-0.0434,-0.1392,0.0964,-0.0057,0.0077,0.0124,66.02,-68.25,5.21,151.1,-26.88,-129.07,156204,2016-03-24 16:59:16:976
6.5759,4.2786,-5.3378,6.8098,4.4155,-5.5046,0.1506,0.0372,-0.0431,-0.0134,0.0144,-0.0219,65.72,-69.33,5.28,151.29,-26.72,-129.18,156305,2016-03-24 16:59:17:077
6.9683,4.2444,-5.4734,6.8169,4.4193,-5.4927,-0.4572,-0.2139,0.1776,-0.0183,0.0708,0.0157,65.85,-70.04,4.39,152.17,-26.76,-128.95,156404,2016-03-24 16:59:17:176
6.7915,4.3393,-5.687,6.8371,4.3629,-5.5127,-0.0666,-0.1104,0.0735,0.0177,-0.0072,0.0416,65.83,-70.08,4.68,151.7,-26.42,-128.88,156504,2016-03-24 16:59:17:276
6.5618,4.3195,-5.2626,6.8877,4.3488,-5.4605,0.613,-0.0498,-0.1335,-0.0113,0.0662,-0.0147,65.84,-70.42,4.42,152.44,-26.32,-128.41,156604,2016-03-24 16:59:17:376
7.0858,4.2425,-5.0091,6.9454,4.3808,-5.3611,-0.0483,-0.1656,0.4107,-0.0147,0.0857,0.0112,65.81,-69.63,4.57,152.16,-26.53,-128.04,156705,2016-03-24 16:59:17:477
8.2727,4.8493,-5.0094,6.9191,4.3905,-5.387,1.1179,0.32,-0.8533,-0.0693,-0.1021,0.0202,65.64,-71.39,4.92,152.62,-26.53,-127.66,156805,2016-03-24 16:59:17:577
7.0964,4.0678,-5.4581,6.9665,4.3824,-5.3323,-1.2168,-0.9663,-0.3245,0.0765,0.1058,-0.0879,66.9,-70.33,5.07,152.28,-26.54,-127.43,156904,2016-03-24 16:59:17:676
8.647,5.0493,-5.4263,6.9201,4.4101,-5.3697,0.1308,-0.197,0.0611,-0.0576,-0.1201,-0.0147,66.49,-70.94,4.66,152.74,-26.54,-127.43,157004,2016-03-24 16:59:17:776
6.0581,3.6106,-5.0909,6.9854,4.413,-5.282,-0.4788,-0.4214,0.3981,0.0782,0.1552,-0.0611,66.49,-71.54,4.1,153.67,-26.74,-127.09,157105,2016-03-24 16:59:17:877
5.1631,3.3801,-3.7381,7.0146,4.3908,-5.2618,-1.1031,-0.8339,0.2561,0.1102,0.1252,-0.0236,67.55,-70.42,3.8,152.87,-26.6,-126.87,157204,2016-03-24 16:59:17:976
6.8082,4.3167,-5.0694,7.0713,4.1974,-5.3432,1.7746,0.3514,1.0403,-0.0359,-0.1009,0.1314,68.99,-74.16,9.4,151.03,-25.34,-127.08,157304,2016-03-24 16:59:18:076
5.0804,2.6927,-5.1278,7.1745,4.1249,-5.2614,-2.4011,-1.2624,0.1716,0.2022,0.2337,-0.1118,66.76,-66.48,5.67,150.99,-25.13,-126.78,157404,2016-03-24 16:59:18:176
7.7777,4.772,-4.5832,7.1934,4.1663,-5.2027,0.9731,0.4293,-0.9949,-0.2711,0.0054,0.019,66.65,-66.57,4.82,152.05,-24.87,-126.25,157504,2016-03-24 16:59:18:276
7.0199,3.7247,-5.8874,7.2803,4.1289,-5.1108,-0.4807,-0.4688,-0.822,0.1178,0.2714,-0.1036,65.7,-69.87,5.63,153.2,-24.9,-125.07,157604,2016-03-24 16:59:18:376
7.3497,4.1926,-4.4433,7.3427,4.1327,-5.0176,-0.8991,-0.3002,0.2376,0.002,0.1939,0.0259,67.11,-71.29,6.86,153.14,-24.92,-124.35,157704,2016-03-24 16:59:18:476
7.649,4.3647,-4.7351,7.3069,4.1202,-5.0798,0.3618,0.2522,0.6782,-0.0856,-0.2159,0.0624,67.16,-72.71,7.57,153.12,-24.92,-124.35,157804,2016-03-24 16:59:18:576
6.722,4.0389,-5.2016,7.2822,4.1057,-5.1268,0.049,0.1171,0.1941,0.0503,-0.1452,0.0155,65.92,-73.84,7.71,153.31,-24.84,-124.81,157905,2016-03-24 16:59:18:677
6.8361,4.2281,-5.5328,7.2307,4.0955,-5.2071,-0.5599,0.009,-0.0672,0.0503,-0.0636,-0.0286,64.14,-71.01,6.78,152.98,-24.68,-125.76,158004,2016-03-24 16:59:18:776
7.059,4.1649,-5.0429,7.2349,4.0842,-5.2102,-0.2609,0.1331,0.1276,0.0017,-0.065,0.032,64.72,-70.97,5.61,153.26,-24.61,-125.76,158104,2016-03-24 16:59:18:876
6.6678,4.281,-5.7372,7.1964,4.0715,-5.273,-0.6251,0.0743,-0.1727,0.0506,-0.0728,-0.0234,65.29,-72.08,7.83,152.5,-24.58,-125.78,158204,2016-03-24 16:59:18:976
7.6762,4.3433,-5.6553,7.1568,4.0743,-5.3245,-0.2823,0.1514,-0.3561,0.0645,-0.0463,-0.0117,64.37,-70.69,6.07,153.22,-24.53,-126.23,158305,2016-03-24 16:59:19:077
7.3106,4.3768,-5.9203,7.1204,4.1188,-5.339,0.0771,0.1996,0.2024,-0.0157,-0.0841,-0.0096,63.87,-72.2,5.64,153.15,-24.83,-126.86,158405,2016-03-24 16:59:19:177
7.8917,4.6433,-6.4903,7.0739,4.1315,-5.3908,0.2426,0.2399,-0.5717,0.037,-0.0577,-0.0505,62.83,-71.52,5.35,153.88,-24.83,-126.86,158505,2016-03-24 16:59:19:277
7.0893,4.3436,-5.6938,7.044,4.1519,-5.4143,0.3716,0.1583,-0.2466,-0.0136,-0.0459,-0.0016,62.86,-72.35,4.17,154.09,-25.03,-127.43,158604,2016-03-24 16:59:19:376
6.8431,4.325,-5.736,7.0196,4.1689,-5.4329,-0.2114,0.0561,-0.1704,0.0148,0.0174,-0.0259,62.05,-73.37,4.14,154.51,-25.05,-127.55,158706,2016-03-24 16:59:19:478
7.4437,4.2859,-5.422,6.9845,4.1994,-5.4545,-0.2067,0.0351,-0.1356,-0.0366,0.0115,0.0284,62.22,-72.52,3.7,154.33,-25.31,-127.92,158804,2016-03-24 16:59:19:576
6.9733,4.5027,-5.892,6.9443,4.2075,-5.4995,-0.1911,0.0048,-0.2898,0.0236,-0.002,-0.0299,61.18,-73.44,3.85,154.53,-25.38,-128.03,158904,2016-03-24 16:59:19:676
7.1208,4.3796,-5.6404,6.9495,4.2183,-5.4846,0.0549,0.1556,-0.1031,-0.0061,0.0384,0.0051,61.05,-72.52,3.14,154.9,-25.48,-128.28,159005,2016-03-24 16:59:19:777
7.0366,4.0394,-5.5587,6.9788,4.1875,-5.471,0.0741,-0.1751,0.1429,0.0083,-0.0139,-0.0173,62.7,-73.41,4.8,153.49,-25.35,-128.12,159104,2016-03-24 16:59:19:876
7.416,4.2365,-5.6855,6.9713,4.1739,-5.4909,0.0287,-0.1325,-0.2218,2.0000E-04,0.0052,-0.0167,62.99,-72.66,3.52,153.99,-25.28,-128.09,159204,2016-03-24 16:59:19:976
6.8853,3.8087,-5.5292,7.0106,4.1114,-5.488,0.0957,-0.272,-0.1821,0.0125,0.0639,-0.006,63.2,-71.48,3.58,153.48,-25.06,-128.13,159304,2016-03-24 16:59:20:076
7.8063,4.0996,-5.5465,7.0089,4.0886,-5.5072,-0.2102,-0.3303,-0.1292,-0.022,-0.0182,0,62.39,-70.71,2.76,154.19,-24.64,-128.16,159405,2016-03-24 16:59:20:177
7.2066,3.9318,-5.4776,7.0657,4.0527,-5.461,-0.0864,-0.3708,-0.0281,0.0015,0.039,-0.0319,63.7,-72.17,3.94,153.62,-24.56,-127.82,159504,2016-03-24 16:59:20:276
7.5151,3.838,-5.4766,7.084,4.0388,-5.4475,-0.0066,-0.2257,0.0143,-0.0342,0.0289,0.0188,62.89,-70.61,4.16,153.74,-24.32,-127.56,159604,2016-03-24 16:59:20:376
7.1972,3.8833,-5.5654,7.1111,3.989,-5.4489,-0.0212,-0.2322,0.0456,0.0193,-0.0321,-0.0298,61.92,-72.5,4.75,154,-24,-127.46,159704,2016-03-24 16:59:20:476
7.3425,3.6983,-5.6718,7.1284,3.9651,-5.4438,0.2121,-0.1776,-0.0703,-0.03,0.0476,0.0215,62.51,-72.87,4.1,154.25,-24,-127.46,159804,2016-03-24 16:59:20:576
6.8699,3.4499,-5.4518,7.1764,3.8864,-5.4374,-0.1383,-0.386,0.0465,-0.0103,0.0251,0.0187,62.88,-72.21,4.07,154.05,-23.85,-127.37,159904,2016-03-24 16:59:20:676
7.2744,3.7344,-5.6025,7.1695,3.854,-5.4695,-0.2681,-0.3589,-0.0352,0.0206,0.0133,-0.0191,62.74,-71.02,4.91,153.27,-23.14,-127.34,160004,2016-03-24 16:59:20:776
7.2019,3.5983,-5.7054,7.1923,3.7976,-5.4789,-0.1971,-0.2897,0.0474,-0.0251,0.0298,0.0435,63.18,-70.82,5.64,152.76,-22.99,-127.34,160105,2016-03-24 16:59:20:877
7.2849,3.7027,-5.578,7.2135,3.766,-5.473,0.3174,0.0473,-0.1506,-0.0235,0.0127,0.0034,61.64,-70.66,3.46,154.47,-22.63,-127.37,160205,2016-03-24 16:59:20:977
8.1043,3.7937,-5.7309,7.2112,3.7367,-5.496,-0.102,-0.2527,-0.0218,-0.0152,0.015,0.0219,62.28,-69.73,1.93,154.83,-22.58,-127.19,160304,2016-03-24 16:59:21:076
7.4259,3.4869,-5.4282,7.2231,3.6865,-5.5143,0.0573,-0.2342,0.1271,-0.0306,-0.0209,0.0226,62.07,-71.13,3.74,153.93,-22.08,-127.36,160405,2016-03-24 16:59:21:177
7.5538,3.7692,-5.8394,7.2046,3.6773,-5.5446,0.0825,-0.0734,-0.0024,0.0171,-0.0358,-0.0157,62.29,-71.8,5.04,153.56,-22.02,-127.58,160504,2016-03-24 16:59:21:276
7.111,3.3334,-5.4186,7.1946,3.6407,-5.5815,-0.174,-0.2829,0.2006,-0.0087,-0.0118,0.0222,62.19,-71.74,3.84,153.93,-21.97,-127.83,160604,2016-03-24 16:59:21:376
7.6559,3.8532,-5.9752,7.1891,3.62,-5.602,0.1305,-0.1391,0.1051,0.0208,-0.0442,1.0000E-04,61.98,-71.56,4.1,153.85,-21.66,-127.93,160704,2016-03-24 16:59:21:476
6.4408,3.1232,-5.4521,7.1791,3.6135,-5.619,-0.474,-0.2066,0.2927,0.0091,0.0258,0.0051,63.62,-71.03,4.21,153.01,-21.67,-128.07,160804,2016-03-24 16:59:21:576
7.6644,3.9818,-5.5218,7.1448,3.5739,-5.6876,-0.1365,-0.2908,-0.0446,0.0384,-0.0836,-0.0024,62.83,-71.08,4.17,153.27,-21.62,-128.05,160904,2016-03-24 16:59:21:676
6.3855,3.071,-5.2921,7.178,3.5479,-5.6621,-0.3511,-0.0454,0.5633,0.0369,0.0584,0.0253,63.05,-72.21,4.92,152.89,-21.21,-128.27,161004,2016-03-24 16:59:21:776
8.1371,4.1371,-6.1815,7.1321,3.529,-5.7315,-0.7037,-0.4511,0.3162,0.089,-0.1087,-0.0396,62.57,-71.7,4.77,152.89,-21.21,-128.27,161104,2016-03-24 16:59:21:876
6.5529,3.2223,-5.4786,7.1034,3.516,-5.7749,-0.4223,-0.3896,0.8079,-0.0191,-0.043,0.0374,62.79,-71.21,5.1,152.19,-21.07,-129.11,161204,2016-03-24 16:59:21:976
9.3607,4.6964,-6.6053,7.0172,3.5045,-5.8863,0.0533,-0.2839,0.0155,0.1555,-0.2116,-0.1155,62.67,-71.64,5.52,151.97,-21.01,-129.11,161305,2016-03-24 16:59:22:077
6.1313,2.8086,-6.1759,7.0016,3.5567,-5.8734,0.1666,0.3285,-0.3211,-0.0741,0.1635,0.0235,63.44,-70.85,3.89,151.95,-21.08,-130.53,161404,2016-03-24 16:59:22:176
9.2322,5.0785,-5.7832,7.0468,3.611,-5.7856,-0.033,-0.1055,-0.4579,-0.0799,-0.1376,-0.0162,63.72,-69.28,3.4,152.27,-21.61,-129.39,161504,2016-03-24 16:59:22:276
6.0383,3.0801,-6.254,7.066,3.6033,-5.7669,1.6392,1.1192,0.2754,-0.0912,0.0689,0.1856,63.71,-71.34,4.35,152.4,-21.56,-129.22,161604,2016-03-24 16:59:22:376
7.5749,3.968,-5.1399,7.1691,3.5455,-5.6749,-0.746,-0.8054,0.2221,0.0371,0.0349,-0.0829,62.88,-66.87,5.2,151.49,-21.19,-128.36,161704,2016-03-24 16:59:22:476
7.2251,3.5782,-5.3496,7.1546,3.5667,-5.6799,0.2884,0.2551,0.6486,-0.1222,-0.1198,0.0885,62.88,-70.17,4.79,152.32,-21.19,-128.36,161804,2016-03-24 16:59:22:576
7.6326,3.6463,-5.506,7.1535,3.5363,-5.7002,-0.1161,-0.2503,0.2454,0.0662,0.0218,-0.0358,62.03,-71.33,6.2,152.25,-21.14,-128.55,161904,2016-03-24 16:59:22:676
6.8003,3.415,-5.8356,7.156,3.5359,-5.6974,-0.0816,0.0424,-0.0085,0.0662,0.0218,-0.0358,62.03,-71.33,6.2,152.25,-21.14,-128.55,162005,2016-03-24 16:59:22:777
7.4738,3.7991,-5.9429,7.165,3.5459,-5.6798,0.0675,0.0856,-0.1596,-0.0019,0.046,-0.0063,61.4,-68.37,3.29,153.28,-21.15,-128.42,162104,2016-03-24 16:59:22:876
7.4846,3.6955,-5.613,7.1647,3.5494,-5.678,0.2342,0.235,-0.042,-0.0137,-0.0294,-0.0117,62.8,-70.53,4.7,152.57,-21.22,-128.4,162204,2016-03-24 16:59:22:976
7.2888,3.611,-5.7382,7.1815,3.5315,-5.6679,-0.2913,-0.1633,0.0613,0.0318,0.0286,-0.0058,64.05,-69.8,5.04,152.09,-21.11,-128.28,162305,2016-03-24 16:59:23:077
7.1028,3.5445,-5.2729,7.1848,3.5426,-5.6568,0.1636,0.1397,-0.043,0.0099,-0.0055,-0.0121,61.9,-68.89,5.69,151.84,-21.11,-128.28,162404,2016-03-24 16:59:23:176
7.5222,3.6952,-5.8483,7.1697,3.5451,-5.6743,-0.0805,-0.0763,0.213,0.0204,-0.0578,-0.004,63.46,-70.15,5.58,151.83,-21.19,-128.36,162504,2016-03-24 16:59:23:276
7.0632,3.4902,-5.9332,7.1597,3.549,-5.6846,0.2973,0.0792,-0.1837,0.008,-0.062,-0.0267,64.07,-70.25,4.98,152.02,-21.22,-128.45,162604,2016-03-24 16:59:23:376
7.7566,3.9433,-6.0194,7.1398,3.5843,-5.6874,-0.2903,-0.2268,0.038,-0.0204,0.0072,-0.0391,62.24,-70.1,4.44,153,-21.44,-128.54,162705,2016-03-24 16:59:23:477
7.5458,3.7785,-6.0568,7.1016,3.6165,-5.7148,0.7189,0.3841,-0.6906,-0.0133,-0.0743,-0.0593,63.11,-69.92,5.61,151.75,-21.44,-128.54,162805,2016-03-24 16:59:23:577
7.662,4.1517,-5.7685,7.0759,3.735,-5.6702,-0.2752,-0.0493,-0.5826,0.0349,0.1014,-0.18,63.02,-68.31,3.64,152.12,-21.96,-128.79,162904,2016-03-24 16:59:23:676
7.2891,3.9186,-6.2236,7.0828,3.849,-5.5848,0.1632,0.0783,-0.5342,-0.051,0.0646,-0.0865,63.82,-66.82,4.32,151.98,-23.11,-128.26,163005,2016-03-24 16:59:23:777
6.9331,4.0715,-5.3065,7.0697,3.9164,-5.5543,-0.3452,-0.4225,-0.423,-0.1879,-0.0178,-0.0096,64.52,-65.77,3.98,151.46,-23.11,-128.26,163104,2016-03-24 16:59:23:876
7.1039,4.0951,-5.2944,7.0482,3.988,-5.5308,-0.0238,0.125,0.377,-0.0564,-0.0714,0.0201,64.7,-69.8,1.6,153.66,-24,-128.12,163204,2016-03-24 16:59:23:976
6.6469,3.6618,-5.5231,7.0241,3.967,-5.5763,0.2114,0.2788,0.3332,0.1685,-0.0233,-0.0695,64.14,-70.37,1.39,154.42,-24,-128.12,163304,2016-03-24 16:59:24:076
6.8544,3.9422,-5.9125,7.036,3.8709,-5.6286,-0.6012,-0.3647,-0.1499,0.1755,0.0389,-0.0174,64.48,-62.94,1.05,152.31,-23.6,-128.57,163404,2016-03-24 16:59:24:176
7.0328,3.8793,-5.7343,7.0427,3.8209,-5.6544,-0.2122,0.0299,-0.2777,0.0805,0.0158,0.0318,63.7,-60.6,2.54,150.48,-22.93,-128.76,163504,2016-03-24 16:59:24:276
7.0922,3.8368,-5.6358,7.057,3.7722,-5.6692,0.0129,-0.0108,0.1867,0.0546,-0.0206,0.0067,64.23,-61.04,3.64,149.9,-22.62,-128.78,163604,2016-03-24 16:59:24:376
6.9145,3.709,-6.0118,7.0587,3.7653,-5.6716,0.1638,0.2237,-0.0549,0.0657,0.0291,-0.0026,65.46,-60.02,3.03,149.86,-22.58,-128.78,163704,2016-03-24 16:59:24:476
7.3849,3.8618,-5.7497,7.0367,3.7445,-5.7126,-0.0983,0.0094,-0.0838,-0.0368,-0.0666,0.0541,63.7,-59.71,3.44,150.02,-22.46,-128.93,163804,2016-03-24 16:59:24:576
7.4901,3.9544,-6.0891,7.0348,3.7231,-5.7289,0.16,-0.0422,0.0488,-0.0052,-0.0625,0.0306,63.7,-60.06,2.67,149.87,-22.31,-129.16,163905,2016-03-24 16:59:24:677
7.0639,3.71,-6.0638,7.0218,3.7085,-5.7543,0.1198,0.0188,0.0572,0.0056,-0.0151,0.0039,63.89,-61.65,3.06,150.34,-22.25,-129.39,164004,2016-03-24 16:59:24:776
6.8663,3.6837,-6.2027,7.0204,3.7118,-5.7539,0.1473,0.1327,0.1132,-0.0302,0.013,-0.0016,63.4,-61.46,2.57,150.33,-22.22,-129.33,164104,2016-03-24 16:59:24:876
7.291,3.7586,-5.7363,6.9958,3.6847,-5.801,-0.1652,-0.053,-0.2241,0.0559,-0.0253,0.0095,63.72,-61.13,1.57,150.59,-22.24,-129.34,164204,2016-03-24 16:59:24:976
6.8096,3.4073,-5.2229,7.0474,3.6687,-5.7485,-0.1763,-0.1206,0.3275,0.0411,-8.0000E-04,-0.0026,64.32,-60.54,0.69,151.17,-21.97,-129.2,164304,2016-03-24 16:59:25:076
7.8091,3.9157,-5.9614,7.0447,3.6847,-5.7416,-0.1157,-0.02,-0.0649,-0.0398,0.1183,-0.0119,63.22,-61.63,2.11,151.21,-21.97,-129.2,164405,2016-03-24 16:59:25:177
6.6936,3.4513,-5.8664,7.0829,3.6778,-5.6989,-0.5955,-0.3127,-0.1714,-0.014,0.0461,0.0302,62.82,-63.15,1.14,152.26,-22.03,-128.82,164504,2016-03-24 16:59:25:276
7.802,3.8345,-5.9824,7.0986,3.6646,-5.6878,-0.2933,-0.2276,0.1767,0.0301,0.061,0.0119,62.77,-60.95,0.21,152.22,-22.03,-128.82,164604,2016-03-24 16:59:25:376
7.0982,3.5845,-5.8048,7.1004,3.679,-5.6762,-0.0587,-0.1821,0.0993,-0.0485,-0.0085,0.0061,61.6,-63.65,0.81,152.92,-22.03,-128.64,164704,2016-03-24 16:59:25:476
7.3475,3.6902,-5.8139,7.097,3.6681,-5.6875,-0.1291,-0.1999,0.032,0.0455,0.0079,-0.0121,62.49,-61.91,1.68,151.82,-22.03,-128.64,164804,2016-03-24 16:59:25:576
6.8538,3.454,-5.6388,7.0742,3.6565,-5.7233,0.176,0.0155,-0.1534,0.0143,-0.028,0.0021,61.91,-62.86,-0.07,153.02,-21.95,-128.9,164904,2016-03-24 16:59:25:676
7.3358,3.5982,-5.921,7.0768,3.6267,-5.739,-0.1714,-0.2706,0.1806,0.0219,-0.0106,0.0076,62.54,-62.51,0.42,152.62,-21.7,-129.04,165004,2016-03-24 16:59:25:776
7.2776,3.4586,-5.6795,7.0981,3.5835,-5.7399,-0.1807,-0.227,-0.1282,0.0031,0.051,0.004,61.95,-61.7,2.17,151.57,-21.59,-128.98,165105,2016-03-24 16:59:25:877
7.0899,3.3394,-5.813,7.1143,3.5604,-5.7342,0.1142,-0.0781,0.0381,0.0017,-0.0022,0.0246,61.77,-61.89,2.49,151.6,-21.29,-128.87,165204,2016-03-24 16:59:25:976
7.4611,3.3621,-5.8056,7.1429,3.5056,-5.7324,0.1576,-0.1584,-0.0122,-7.0000E-04,0.004,0.006,61.29,-62.73,1.8,152.17,-21.1,-128.85,165304,2016-03-24 16:59:26:076
7.622,3.2702,-5.9488,7.1523,3.4752,-5.7392,0.1585,-0.2103,-0.242,-0.0147,0.02,0.0031,61.31,-62.86,2.73,151.66,-20.76,-128.74,165405,2016-03-24 16:59:26:177
7.4115,3.0832,-6.0807,7.1902,3.4034,-5.7349,-0.0024,-0.3647,0.0548,0.0073,-0.01,0.0059,62.7,-63.62,3.23,151.46,-20.57,-128.6,165504,2016-03-24 16:59:26:276
7.2542,3.1259,-5.7563,7.2269,3.338,-5.7271,0.234,-0.2039,-0.2047,0.0021,0.0493,-0.0075,62.23,-63.52,3.79,151.24,-19.9,-128.4,165604,2016-03-24 16:59:26:376
7.6495,3.0681,-5.6021,7.2457,3.3119,-5.7186,-0.0706,-0.2906,-0.0623,-0.0217,0.0405,0.0026,63.02,-63.72,3.44,151.49,-19.9,-128.4,165704,2016-03-24 16:59:26:476
7.8431,3.2981,-5.611,7.2999,3.2534,-5.683,0.1286,-0.2683,-0.1151,-0.0206,0.0726,-0.0042,62.59,-65.7,3.5,151.76,-19.38,-127.9,165804,2016-03-24 16:59:26:576
7.411,2.9608,-6.0075,7.3011,3.2225,-5.6991,-0.1944,-0.3089,-0.2269,0.0031,0.002,0.008,62.42,-65.02,3.85,151.68,-19.18,-127.97,165904,2016-03-24 16:59:26:676
7.205,3.0324,-5.9442,7.2937,3.1986,-5.722,-0.1513,-0.1708,0.0036,0.0016,-0.0242,-0.0116,63.21,-64.63,3.08,151.93,-19.07,-127.94,166004,2016-03-24 16:59:26:776
7.3315,3.0144,-5.7856,7.2937,3.18,-5.7323,0.15,-0.1538,-0.1755,-0.0215,0.0113,-0.0021,64.2,-64.37,2.11,151.73,-18.92,-128.16,166104,2016-03-24 16:59:26:876
7.1615,2.9279,-5.7343,7.2889,3.1283,-5.7668,0.0864,-0.1047,-0.2224,0.014,-0.0196,0.0363,64.92,-62.01,2.06,150.85,-18.92,-128.16,166204,2016-03-24 16:59:26:976
7.5761,3.1039,-6.0493,7.2735,3.102,-5.8004,-0.276,-0.2682,0.0227,-0.0077,-1.0000E-04,0.007,64.24,-62.65,4.06,150.09,-18.44,-128.57,166304,2016-03-24 16:59:27:076
7.2173,3.0239,-6.1076,7.2572,3.0694,-5.8381,-0.0529,-0.0328,0.0777,-0.0101,-0.022,0.02,62.42,-63.16,2.84,151.01,-18.24,-128.82,166404,2016-03-24 16:59:27:176
7.6914,3.0974,-5.6497,7.2288,3.0519,-5.8822,-0.1507,-0.0826,-0.1348,0.0323,-0.0435,0.0104,62.98,-63.13,2.38,151.05,-18.13,-129.14,166504,2016-03-24 16:59:27:276
7.3239,3.0844,-6.2635,7.2316,3.0469,-5.8814,0.0855,-0.0434,0.0911,0.0045,-0.0482,-0.0022,63.11,-64.53,3.12,151.18,-18.13,-129.07,166605,2016-03-24 16:59:27:377
7.2,2.8804,-6.1887,7.2255,3.0334,-5.8958,-0.1921,-0.1936,-0.1175,0.0208,0.0043,-0.0232,63.22,-64.36,2.8,150.85,-18.1,-129.12,166706,2016-03-24 16:59:27:478
7.5708,2.4947,-5.9082,7.2566,2.9629,-5.8935,0.4825,-0.2425,0.0999,-0.0359,-0.061,0.0421,62.51,-63.49,3.85,149.97,-17.59,-129.08,166805,2016-03-24 16:59:27:577
7.6272,2.2461,-6.4148,7.2631,2.8598,-5.9363,0.0309,-0.6653,-0.0596,-0.0048,-0.0543,0.0524,62.93,-64.41,5.74,149.27,-17.59,-129.08,166904,2016-03-24 16:59:27:676
7.6051,2.7635,-6.1927,7.2813,2.7284,-5.9757,0.1178,-0.2664,-0.0992,0.009,0.006,-0.0035,64,-64.17,4.28,149.62,-16.15,-129.38,167004,2016-03-24 16:59:27:776
7.2867,2.6266,-6.06,7.3056,2.7286,-5.9459,0.3139,-0.0805,0.074,-0.0191,0.0034,-0.0148,61.86,-63.62,3.59,150.22,-16.16,-129.36,167104,2016-03-24 16:59:27:876
7.809,2.7073,-6.3217,7.3028,2.7223,-5.9522,-0.2144,-0.1744,0.0162,0.0116,0.0226,-0.0259,62.41,-63.05,3.94,149.98,-16.12,-129.18,167205,2016-03-24 16:59:27:977
7.1744,2.4666,-5.9706,7.3305,2.703,-5.9269,-0.0794,-0.1204,0.0495,-0.0189,0.0269,0.0204,63.03,-63.18,3.57,149.73,-16.08,-129.09,167304,2016-03-24 16:59:28:076
7.5367,2.3103,-5.7287,7.3362,2.6873,-5.927,-0.0447,-0.1005,0.0847,-0.0088,-0.007,0.0212,63.94,-63.6,4.58,149.32,-16,-128.96,167405,2016-03-24 16:59:28:177
8.0577,2.632,-6.3483,7.3733,2.6166,-5.9126,0.23,-0.1806,0.0345,0.0029,-0.0136,0.0084,63.97,-63.06,3.97,149.51,-15.67,-128.83,167504,2016-03-24 16:59:28:276
7.3772,2.2366,-6.1605,7.3777,2.5886,-5.9194,0.1949,-0.1658,-0.2026,-0.0043,0.0118,0.0041,64.36,-62.99,3.84,149.53,-15.47,-128.73,167604,2016-03-24 16:59:28:376
7.6657,2.2907,-5.8748,7.4205,2.5166,-5.8969,0.2715,-0.1908,-0.0284,-0.0123,0.0364,0.0144,64.22,-63.89,4.95,149.39,-14.87,-128.47,167704,2016-03-24 16:59:28:476
7.5507,2.1942,-5.7289,7.4469,2.4821,-5.8782,-2.0000E-04,-0.2877,0.139,-0.005,0.0157,0.017,63.45,-63.72,5.03,149.68,-14.87,-128.47,167805,2016-03-24 16:59:28:577
7.4279,2.1278,-6.1519,7.4785,2.4166,-5.8653,0.2601,-0.1159,-0.1766,1.0000E-04,0.0535,0.0166,63.62,-63.07,3.87,149.66,-14.27,-128.11,167904,2016-03-24 16:59:28:676
7.7366,2.2277,-6.0562,7.5022,2.3806,-5.8497,-0.0017,-0.2018,-0.2009,-0.0064,0.069,0.0261,63.25,-63.6,4.61,149.77,-14.27,-128.11,168004,2016-03-24 16:59:28:776
7.5895,2.0962,-5.7508,7.5259,2.3184,-5.8443,0.1798,-0.0558,-0.1187,-0.0097,0.048,0.0262,62.88,-63.74,6.07,149.29,-13.81,-127.91,168104,2016-03-24 16:59:28:876
7.5968,2.0281,-5.713,7.549,2.2909,-5.8254,0.034,-0.156,0.0372,0.0018,-0.0276,0.0082,63.66,-63.21,4.69,149.19,-13.67,-127.83,168204,2016-03-24 16:59:28:976
8.0822,2.2559,-5.8565,7.552,2.2496,-5.8375,0.2305,0.0133,-0.1417,0.0018,-0.0276,0.0082,64.07,-65.16,6.19,149.38,-13.34,-127.67,168304,2016-03-24 16:59:29:076
7.6456,2.0499,-5.9153,7.5812,2.1946,-5.8207,-0.1726,-0.224,0.0852,0.0054,0.0382,0.0294,64.41,-65.21,4.3,150.43,-13.13,-127.51,168404,2016-03-24 16:59:29:176
7.8425,2.3246,-6.081,7.571,2.1844,-5.8377,0.0751,-0.0231,-0.1996,0.0154,-0.0268,0.0023,64.08,-65.16,5.97,149.31,-12.87,-127.63,168504,2016-03-24 16:59:29:276
7.75,2.0122,-5.9154,7.5895,2.156,-5.8242,0.1656,-0.0685,0.1219,4.0000E-04,-0.0061,0.0221,65.29,-64.32,5.78,148.67,-12.8,-127.63,168605,2016-03-24 16:59:29:377
7.6282,2.0336,-5.9549,7.5836,2.1427,-5.8368,-0.0941,-0.1225,0.0111,0.0067,-0.0069,-9.0000E-04,62.97,-63.99,6.04,149.3,-12.7,-127.5,168704,2016-03-24 16:59:29:476
7.8868,2.0782,-6.0815,7.5823,2.1413,-5.839,0.1754,0.0381,0.0937,-0.0232,-3.0000E-04,0.0039,64.65,-63.89,6.02,148.61,-12.58,-127.67,168804,2016-03-24 16:59:29:576
7.9213,2.1472,-6.1746,7.5732,2.1321,-5.8541,0.0954,-0.0336,-0.0472,0.0032,-0.0434,0.0044,64.43,-64.11,6.4,148.87,-12.56,-127.7,168905,2016-03-24 16:59:29:677
7.7901,2.1046,-6.1705,7.568,2.1193,-5.8655,0.0384,-0.08,-0.1298,-0.0095,-0.0015,-0.0039,64.31,-63.59,6.24,148.82,-12.48,-127.78,169005,2016-03-24 16:59:29:777
7.8003,2.0911,-5.9115,7.5663,2.129,-5.8643,0.0416,0.0382,-0.1021,-0.0079,0.0061,-0.0086,63.9,-63.74,6.3,148.83,-12.54,-127.78,169104,2016-03-24 16:59:29:876
7.6118,2.039,-6.0639,7.5711,2.1191,-5.8615,-0.1374,-0.1105,-0.0062,-0.0028,0.0051,-0.0045,64.56,-63.39,5.96,148.23,-12.52,-127.7,169204,2016-03-24 16:59:29:976
7.7779,2.139,-5.9776,7.5875,2.1234,-5.8388,0.0932,0.0133,0.053,-0.0087,0.0217,-2.0000E-04,64.41,-64.14,6.81,148.43,-12.5,-127.58,169305,2016-03-24 16:59:30:077
7.7605,2.1492,-6.3554,7.5941,2.1316,-5.8273,0.346,0.1165,0.0545,-0.0019,-0.0332,0.0016,64.77,-64.7,5.73,149.03,-12.55,-127.5,169405,2016-03-24 16:59:30:177
7.8026,2.152,-6.0673,7.5791,2.1229,-5.8499,-0.0181,-0.0323,-0.275,0.0058,0.0041,-0.0026,64.65,-64.76,5.86,149.03,-12.55,-127.5,169504,2016-03-24 16:59:30:276
7.9079,2.1577,-6.1392,7.5742,2.1174,-5.8582,-0.0467,-0.0407,0.0495,-0.0213,-0.0094,0.0195,63.95,-64.47,6.89,148.35,-12.49,-127.73,169604,2016-03-24 16:59:30:376
7.8857,2.0812,-5.9746,7.5799,2.0961,-5.8585,-0.0394,-0.0856,-0.0459,-0.0092,0.0027,0.0062,63.97,-64.87,6.46,149.19,-12.41,-127.69,169704,2016-03-24 16:59:30:476
7.9314,2.0841,-5.9535,7.5889,2.0945,-5.8474,0.067,-0.0446,-3.0000E-04,-0.0207,0.0176,0.0049,63.74,-64.97,6.67,148.72,-12.33,-127.61,169804,2016-03-24 16:59:30:576
7.6075,2.0629,-5.9371,7.5974,2.0886,-5.8384,-0.1298,-0.0462,0.093,6.0000E-04,0.0137,0.0071,64.74,-65.5,6.29,148.96,-12.3,-127.54,169904,2016-03-24 16:59:30:676
8.23,2.2915,-5.9221,7.6001,2.0891,-5.8348,-0.0902,-0.0308,0.1226,-0.0074,-0.018,-1.0000E-04,65.21,-65.93,6.67,148.8,-12.3,-127.54,170005,2016-03-24 16:59:30:777
7.6614,2.0625,-6.1807,7.602,2.0976,-5.8293,-0.0022,-0.0161,-0.0763,0.0253,0.007,-0.0059,64.74,-64.51,6.69,148.55,-12.37,-127.41,170104,2016-03-24 16:59:30:876
7.7568,2.0589,-5.999,7.5938,2.0914,-5.8421,-0.1011,-0.0153,-0.1414,-0.0085,0.01,0.0075,65.39,-63.59,5.69,148.66,-12.35,-127.48,170204,2016-03-24 16:59:30:976
8.0774,2.1483,-5.9698,7.601,2.0875,-5.8341,-1.0000E-04,-0.0941,0.0714,-0.0168,-0.033,-0.0133,63.94,-65.39,7.64,148.27,-12.29,-127.51,170304,2016-03-24 16:59:31:076
7.7816,2.0823,-6.0446,7.6097,2.0956,-5.8199,0.2001,0.016,0.0838,-0.0058,0.0136,-0.0049,66.11,-64.54,7.24,148.26,-12.34,-127.41,170404,2016-03-24 16:59:31:176
7.8221,2.2196,-5.8942,7.6106,2.0928,-5.8197,-0.1428,-0.023,0.0221,0.0077,0.0148,-0.0077,65.12,-64.88,5.57,149.04,-12.31,-127.39,170504,2016-03-24 16:59:31:276
8.0876,2.3473,-5.9349,7.6161,2.1055,-5.808,0.1455,0.0983,-0.0037,-0.012,0.0013,0.0053,65.64,-65.42,5.72,148.8,-12.4,-127.33,170605,2016-03-24 16:59:31:377
7.6634,2.2574,-5.9339,7.6201,2.1344,-5.7921,-0.0952,0.0237,0.0708,-0.0031,-0.0069,-0.0042,65.17,-66.89,6.6,149.33,-12.57,-127.24,170704,2016-03-24 16:59:31:476
7.7955,2.2887,-5.869,7.6183,2.1506,-5.7885,-0.1163,0.0675,0.0384,0.0056,0.0119,-0.0141,64.4,-67.76,5.6,150.43,-12.57,-127.24,170805,2016-03-24 16:59:31:577
7.804,2.278,-5.9597,7.6156,2.1757,-5.7826,-0.0626,0.0758,-0.0382,-0.0034,-0.0013,0.0035,65.82,-66.13,5.74,149.28,-12.82,-127.21,170904,2016-03-24 16:59:31:676
7.799,2.3611,-5.88,7.6147,2.1796,-5.7824,-0.0385,0.0177,-0.0546,-0.0083,0.0056,0.0032,64.91,-65.96,5.94,149.56,-12.82,-127.21,171005,2016-03-24 16:59:31:777
7.9719,2.3912,-5.6751,7.6263,2.2019,-5.7587,0.0148,0.0843,0.1354,-0.0059,0.0019,0.0041,64.94,-66.62,6.51,149.44,-12.91,-127.16,171104,2016-03-24 16:59:31:876
7.8408,2.2314,-6.0467,7.6319,2.2104,-5.7479,-0.0471,0.034,0.0104,0.0099,-0.0014,-0.0071,64.78,-66.3,6.8,149.23,-13.03,-126.98,171204,2016-03-24 16:59:31:976
7.7721,2.2963,-6.0143,7.6303,2.2125,-5.7492,-0.0293,0.0198,-0.0806,-0.0014,0.0124,-8.0000E-04,64.69,-65.96,6.64,149.23,-13.03,-126.98,171304,2016-03-24 16:59:32:076
7.7363,2.7339,-5.745,7.6241,2.2674,-5.736,-0.1249,0.2941,0.091,-0.0043,0.0044,-0.0049,64.55,-66.24,6.78,149.25,-13.11,-126.97,171404,2016-03-24 16:59:32:176
7.669,2.8885,-5.6937,7.6188,2.3294,-5.7182,-0.0856,0.4663,0.1382,7.0000E-04,0.0077,-0.0091,64.42,-65.89,6.07,150.08,-13.37,-126.96,171505,2016-03-24 16:59:32:277
7.4888,3.0804,-5.7289,7.5944,2.4592,-5.6964,-0.1602,0.4977,0.0933,0.0038,0.0142,-0.0173,64.34,-64.89,5.45,150.52,-14.52,-126.87,171604,2016-03-24 16:59:32:376
7.4077,3.3349,-5.736,7.5729,2.5397,-5.6896,-0.2519,0.5593,0.1052,-3.0000E-04,0.002,-0.0169,65.84,-66.14,5.25,150.34,-15.01,-126.92,171705,2016-03-24 16:59:32:477
7.4322,3.5251,-5.5089,7.5315,2.7174,-5.6624,-0.2231,0.6449,0.1179,-0.0021,0.01,-0.0119,64.43,-65.54,5.69,150.45,-15.56,-126.95,171804,2016-03-24 16:59:32:576
7.3661,3.3962,-5.6864,7.5128,2.7987,-5.6477,-0.2183,0.5892,0.1268,-0.0065,0.0094,-0.0079,65.5,-65.19,4.55,150.47,-16.09,-126.94,171904,2016-03-24 16:59:32:676
7.3053,3.4712,-5.7138,7.4708,2.9321,-5.6356,-0.2222,0.4809,0.1332,-0.0038,-0.007,0.0038,64.94,-65.47,5.74,150.12,-17.4,-127.03,172004,2016-03-24 16:59:32:776
7.437,3.4879,-5.6928,7.4491,2.989,-5.6344,-0.2082,0.4477,0.0436,0.0022,1.0000E-04,-0.0041,65.11,-65.02,5.39,150.64,-17.75,-127.1,172105,2016-03-24 16:59:32:877
7.4131,3.5795,-5.591,7.4135,3.0949,-5.6242,-0.1609,0.3924,0.0568,-0.0028,-0.0128,0.0021,65.3,-66.91,4.86,151.28,-18.4,-127.19,172204,2016-03-24 16:59:32:976
7.2568,4.423,-5.5825,7.3397,3.3075,-5.6,-0.2269,1.0155,0.1489,0.0062,0.0056,-0.0235,65.11,-65.52,4.69,151,-18.91,-127.29,172304,2016-03-24 16:59:33:076
7.1907,4.227,-5.5819,7.3038,3.4266,-5.5752,-0.2752,0.9405,0.1193,-0.0161,0.0147,0.0072,65.59,-65.71,3.78,151.41,-20.45,-127.36,172404,2016-03-24 16:59:33:176
7.1696,3.7393,-5.4013,7.2758,3.5128,-5.5582,-0.242,0.1379,0.165,-0.0082,0.0141,0.0142,65.62,-65.39,4.06,151.13,-20.45,-127.36,172505,2016-03-24 16:59:33:277
7.158,4.239,-5.4376,7.2511,3.5652,-5.5571,-0.1489,0.3852,0.0635,0.0102,-0.0179,-0.0144,64.08,-65.9,4.9,151.46,-20.99,-127.38,172605,2016-03-24 16:59:33:377
7.1225,4.0155,-5.5578,7.2141,3.6899,-5.5237,-0.1049,0.4316,0.0682,-0.0063,0,0.0034,66.01,-65.87,5.14,151.05,-22.1,-127.44,172704,2016-03-24 16:59:33:476
7.1271,3.8936,-5.6095,7.2016,3.7112,-5.5258,-0.1521,0.1704,0.0309,-2.0000E-04,0.0089,0.0118,64.63,-65.62,4.14,151.81,-22.1,-127.44,172804,2016-03-24 16:59:33:576
7.2208,4.2098,-5.5157,7.176,3.7814,-5.5115,-0.0481,0.3878,0.0453,-0.0202,5.0000E-04,0.0011,65.12,-66.09,5.04,151.31,-22.68,-127.53,172904,2016-03-24 16:59:33:676
7.1306,4.005,-5.4727,7.1682,3.8081,-5.5032,-0.1222,0.1994,0.0836,-0.0158,-0.0067,0.0108,65.93,-66.17,4.77,151.09,-22.85,-127.51,173004,2016-03-24 16:59:33:776
7.2068,4.0903,-5.5487,7.1564,3.8434,-5.4941,-0.0621,0.1533,-0.0358,-0.0032,0.0028,-0.0026,65.54,-65.98,4.41,151.62,-23.07,-127.51,173104,2016-03-24 16:59:33:876
7.2189,4.1518,-5.5506,7.1506,3.8645,-5.4868,-0.0209,0.1736,-0.0067,-0.0101,0.0028,0.0014,65.44,-66.58,4.85,151.65,-23.21,-127.5,173205,2016-03-24 16:59:33:977
7.1542,3.9885,-5.4839,7.1398,3.8986,-5.4767,-0.1062,0.0907,0.0404,-0.005,0.0034,0.005,64.69,-66,5.86,150.89,-23.33,-127.49,173304,2016-03-24 16:59:34:076
7.2601,4.0717,-5.517,7.1337,3.9101,-5.4765,-0.0503,0.0684,0.0266,-0.009,-0.0053,0.0028,64.77,-67.91,5.95,151.44,-23.5,-127.51,173405,2016-03-24 16:59:34:177
7.166,4.0435,-5.5549,7.1295,3.9278,-5.4694,0.034,0.1061,0.0511,-0.0046,-0.0049,0.0075,65.67,-66.88,5.2,151.43,-23.55,-127.53,173504,2016-03-24 16:59:34:276
7.1637,4.0818,-5.5413,7.1258,3.9345,-5.4692,-0.0525,0.0361,-0.0045,-0.0039,0.002,5.0000E-04,65.44,-67.59,5.25,151.96,-23.61,-127.49,173604,2016-03-24 16:59:34:376
7.2666,4.0339,-5.5826,7.1197,3.9454,-5.4694,0.0217,0.0535,-0.0167,0.001,-0.0015,0.0043,64.74,-68.62,4.88,152.22,-23.72,-127.53,173704,2016-03-24 16:59:34:476
7.179,4.0368,-5.5374,7.118,3.9574,-5.463,-0.0331,0.0489,0.0401,-0.0015,0.0055,-0.0027,65.39,-67.86,5.83,151.45,-23.74,-127.53,173804,2016-03-24 16:59:34:576
7.1975,4.1064,-5.5091,7.1158,3.9621,-5.4623,-0.0424,0.0281,-0.0115,-0.0022,0.0027,0.0014,64.91,-67.82,5.36,151.97,-23.8,-127.51,173905,2016-03-24 16:59:34:677
7.2016,4.0429,-5.4889,7.1133,3.9706,-5.4595,0.0236,0.0196,0.0197,0.0014,-0.0012,-0.0016,64.97,-68.38,5.47,151.98,-23.88,-127.51,174004,2016-03-24 16:59:34:776
7.1525,4.0612,-5.5015,7.1109,3.974,-5.4601,-0.039,-0.0129,0.0043,-0.0032,0.0031,-0.0056,65.4,-68.92,5.93,151.74,-23.88,-127.51,174104,2016-03-24 16:59:34:876
7.1731,4.0575,-5.5555,7.108,3.9853,-5.4556,0.0221,0.0661,0.0254,0.0031,-0.0077,0.0042,64.83,-68.49,5.71,151.48,-23.98,-127.51,174204,2016-03-24 16:59:34:976
7.2264,4.0458,-5.4661,7.1063,3.9832,-5.4594,0.0029,0.0159,-0.0393,0.0013,0.0041,0.003,65.48,-68.76,5.77,151.74,-23.96,-127.53,174305,2016-03-24 16:59:35:077
7.2181,4.1214,-5.5101,7.11,3.9855,-5.4529,0.0408,0.0107,0.0442,0.0018,0.0054,0.003,65.62,-68.3,5.62,151.23,-23.98,-127.54,174404,2016-03-24 16:59:35:176
7.2509,4.0223,-5.6469,7.1067,3.9898,-5.4541,-0.0419,0.0543,-0.0065,0.0047,-0.0023,0.0027,64.35,-68.74,6.36,151.99,-24.01,-127.5,174504,2016-03-24 16:59:35:276
7.2289,4.0155,-5.5813,7.1067,3.9867,-5.4563,-0.0237,-0.018,-0.0446,0.0028,-0.003,5.0000E-04,65.79,-66.6,5.57,151,-24,-127.48,174604,2016-03-24 16:59:35:376
7.2117,4.0832,-5.4371,7.1066,3.986,-5.457,-0.0013,0.0238,-0.015,0.0028,-0.003,5.0000E-04,65.79,-66.6,5.57,151,-24,-127.48,174705,2016-03-24 16:59:35:477
7.2592,4.0917,-5.4273,7.1138,3.9839,-5.449,-0.0099,-0.0073,-0.0285,0.005,0.0144,0.0013,65.76,-68.59,5.23,152.04,-23.99,-127.45,174805,2016-03-24 16:59:35:577
7.0202,4.0783,-5.7617,7.1416,3.9942,-5.405,0.2035,-0.0409,0.1172,0.0065,0.0117,-0.0104,65.24,-68.17,5.13,152.02,-23.97,-127.45,174904,2016-03-24 16:59:35:676
7.0311,4.0175,-5.852,7.0696,4.111,-5.4121,-0.2905,-0.1698,-0.4083,-0.0817,-0.0293,-0.0863,64.62,-66.04,4.89,151.56,-24.78,-127.44,175004,2016-03-24 16:59:35:776
7.3015,5.2541,-4.7606,7.0373,4.2175,-5.3721,-0.0838,-0.1932,-0.3871,-0.3003,-0.0637,-0.032,64.76,-65.77,4.02,152.18,-25.47,-127.36,175105,2016-03-24 16:59:35:877
6.4863,5.0898,-4.73,7.0874,4.4059,-5.1505,0.1244,0.7201,0.5805,-0.1496,0.1424,-0.0513,65.58,-72.66,1.79,155.09,-26.29,-126.69,175204,2016-03-24 16:59:35:976
6.7623,4.9217,-4.9947,7.1356,4.2088,-5.2479,-0.4268,0.548,0.152,0.237,-0.0345,0.1425,66,-72.09,1.62,155.01,-25.42,-126.33,175304,2016-03-24 16:59:36:076
8.0658,4.4722,-4.9318,7.1378,4.1095,-5.323,0.5052,0.1212,-0.003,0.1255,-0.1355,0.1806,65.83,-74.26,3.63,154.23,-24.77,-126.71,175404,2016-03-24 16:59:36:176
7.2525,4.4159,-5.4198,7.122,4.0836,-5.3639,-0.2784,0.3503,0.1117,0.1897,0.0331,-0.0828,64.64,-75.29,4.65,154.21,-24.76,-126.69,175504,2016-03-24 16:59:36:276
6.8743,4.4227,-5.5229,7.1008,4.0663,-5.4051,-0.0834,0.1491,-0.1528,0.0929,-0.0457,-0.0224,65.74,-72.31,5.09,153.11,-24.61,-126.99,175605,2016-03-24 16:59:36:377
7.1411,4.5854,-5.228,7.0939,4.0728,-5.4092,-0.1017,0.343,0.1109,-0.0223,-0.0206,0.024,64.94,-69.3,5.24,152.4,-24.52,-127.31,175704,2016-03-24 16:59:36:476
7.1982,4.5965,-5.2897,7.0951,4.0801,-5.4021,-0.1184,0.4175,0.2153,-0.015,-9.0000E-04,0.0113,65.36,-69.6,5.66,152.15,-24.54,-127.33,175804,2016-03-24 16:59:36:576
6.9881,4.494,-5.3167,7.0769,4.1609,-5.3642,-0.1096,0.32,0.0909,7.0000E-04,-0.004,0.0029,65.38,-70.12,5.3,152.77,-24.87,-127.16,175905,2016-03-24 16:59:36:677
7.009,4.4839,-5.329,7.0624,4.1972,-5.355,-0.156,0.2473,0.1171,-0.0082,-0.0044,9.0000E-04,64.81,-69.9,5.7,152.29,-25.34,-127.17,176004,2016-03-24 16:59:36:776
7.1221,4.5447,-5.3826,7.0408,4.2573,-5.336,-0.099,0.2314,0.0829,0.0043,0.0038,0.0059,65.27,-70.1,5.56,152.3,-25.56,-127.18,176104,2016-03-24 16:59:36:876
7.0201,4.5586,-5.361,7.0346,4.2808,-5.3254,-0.0595,0.1947,0.0747,4.0000E-04,0.0037,-0.0039,65.22,-69.42,6.37,152.1,-25.88,-127.13,176204,2016-03-24 16:59:36:976
7.1326,4.5215,-5.2558,7.0216,4.3351,-5.2986,-0.0758,0.1645,0.0742,-0.0015,0.008,0.0016,65.64,-69.3,5.24,152.41,-26.08,-127.09,176304,2016-03-24 16:59:37:076
7.1549,4.4585,-5.3463,7.0271,4.3472,-5.2813,0.0182,0.0414,0.0151,-5.0000E-04,-0.0021,-8.0000E-04,66.15,-69.47,4.02,153.02,-26.31,-126.93,176405,2016-03-24 16:59:37:177
7.0934,4.4193,-5.3448,7.0253,4.3533,-5.2787,0.0203,0.0397,0.001,-0.0034,0.0024,-0.0063,66.3,-69.17,5.24,152.52,-26.35,-126.92,176504,2016-03-24 16:59:37:276
7.0858,4.438,-5.3373,7.0269,4.3653,-5.2666,-0.024,0.0347,0.0203,0.0015,0.0137,0.0033,66.45,-69.96,4.56,152.79,-26.4,-126.89,176604,2016-03-24 16:59:37:376
7.1732,4.387,-5.3786,7.0323,4.3635,-5.2609,0.0343,0.0233,0.0208,0.0049,-0.0026,0.0058,64.8,-69.98,4.89,153.04,-26.43,-126.85,176704,2016-03-24 16:59:37:476
7.1263,4.428,-5.3316,7.0319,4.3639,-5.2611,0.0065,0.0183,0.0245,0.0018,-0.0073,-0.0027,64.42,-69.98,4.24,153.8,-26.42,-126.8,176804,2016-03-24 16:59:37:576
7.2014,4.3571,-5.3217,7.0338,4.3597,-5.262,-0.0017,-0.0253,-0.0054,-0.0043,-0.0057,8.0000E-04,65.46,-69.66,4.84,153.06,-26.42,-126.8,176904,2016-03-24 16:59:37:676
7.1318,4.3618,-5.3747,7.0394,4.3446,-5.267,0.0103,-0.0299,-0.0254,0.0023,-0.0061,0.0022,64.78,-69.39,5.55,152.32,-26.33,-126.77,177005,2016-03-24 16:59:37:777
7.1211,4.3586,-5.2801,7.04,4.3402,-5.2699,0.026,-0.042,-0.0241,-0.0022,-0.0044,-0.0018,64.75,-70.02,5.31,153.05,-26.27,-126.82,177105,2016-03-24 16:59:37:877
7.0764,4.3591,-5.3291,7.0433,4.3372,-5.2679,-0.0212,-0.0047,-0.0047,0.0034,9.0000E-04,0.0014,65.42,-70.31,5.81,152.57,-26.26,-126.77,177204,2016-03-24 16:59:37:976
7.1652,4.3958,-5.406,7.0413,4.3351,-5.2724,-0.0085,-0.0199,-0.0219,0.0043,-0.0037,-7.0000E-04,65.43,-68.56,5.48,152.79,-26.24,-126.83,177304,2016-03-24 16:59:38:076
7.1468,4.2975,-5.3914,7.0455,4.328,-5.2726,0.0548,-0.0258,-0.0449,-0.0026,-0.005,0.0101,65.08,-68.55,5.13,152.8,-26.19,-126.81,177404,2016-03-24 16:59:38:176
7.2051,4.3078,-5.384,7.0477,4.3174,-5.2782,0.0262,-0.0508,-0.0595,0,0.0036,0.0074,64.81,-69.01,5.64,152.27,-26.12,-126.83,177505,2016-03-24 16:59:38:277
7.2985,4.3466,-5.4097,7.0532,4.3052,-5.2809,0.0971,-0.0155,-0.0346,-0.0058,-0.0038,0.0071,66.49,-68.65,4.63,152.56,-26.04,-126.82,177604,2016-03-24 16:59:38:376
7.1567,4.2065,-5.4269,7.0615,4.2886,-5.2833,0.0865,-0.1046,-0.0138,-0.002,-0.0074,0.0073,65.32,-69.6,4.8,153.03,-25.93,-126.8,177705,2016-03-24 16:59:38:477
7.1038,4.2477,-5.3149,7.0668,4.2724,-5.2894,0.0294,-0.0538,-0.0067,-0.0043,0.002,-0.0043,65.11,-68.46,6.25,152.01,-25.83,-126.81,177804,2016-03-24 16:59:38:576
7.1964,4.2229,-5.3383,7.078,4.251,-5.2916,0.0461,-0.1251,0.0273,0.0044,-0.0078,0.001,65.16,-68.51,5.98,152.27,-25.69,-126.78,177904,2016-03-24 16:59:38:676
7.2309,4.3092,-5.3888,7.0793,4.2437,-5.2957,0.0368,-0.0622,-0.0018,0.006,-0.005,-0.0059,64.57,-68.48,5.14,152.53,-25.69,-126.78,178004,2016-03-24 16:59:38:776
7.1517,4.1747,-5.4225,7.0795,4.2336,-5.3036,-0.0101,-0.0712,-0.1055,-0.0065,0.0132,-0.001,64.26,-68.56,5.85,152.47,-25.62,-126.82,178105,2016-03-24 16:59:38:877
7.1765,4.199,-5.3113,7.0854,4.2289,-5.2994,-0.0318,-0.0845,0.0579,-0.0046,0,0.002,64.66,-68.05,5.57,151.98,-25.58,-126.84,178205,2016-03-24 16:59:38:977
7.1946,4.3443,-5.2993,7.0897,4.23,-5.2927,-0.0059,-0.0087,0.034,0.0012,-9.0000E-04,-0.0045,64.55,-69.18,5.63,152.28,-25.53,-126.76,178304,2016-03-24 16:59:39:076
7.1475,4.2541,-5.3606,7.0916,4.2267,-5.2928,-0.0042,-0.0173,0.0054,0.0025,0.004,0.005,65.25,-68.74,6.3,152.29,-25.55,-126.74,178404,2016-03-24 16:59:39:176
7.0434,4.3003,-5.3702,7.0887,4.2259,-5.2974,-0.0665,0.0174,0.0231,-0.007,0.0082,0.0059,65.11,-68.39,6.57,151.5,-25.53,-126.77,178504,2016-03-24 16:59:39:276
7.2612,4.3008,-5.3008,7.0894,4.2294,-5.2937,-0.0238,0.0427,0.0134,-0.0044,-0.0058,0.0116,65.7,-69.76,6.28,152.3,-25.53,-126.77,178604,2016-03-24 16:59:39:376
7.1352,4.2719,-5.2019,7.1052,4.2237,-5.277,0.0972,0.0207,0.0682,0.0128,-0.0144,-0.0017,64.78,-68.92,6.17,152.36,-25.51,-126.6,178704,2016-03-24 16:59:39:476
7.0988,4.3261,-5.4614,7.1021,4.2228,-5.2819,0.0032,0.0038,-0.0318,0.0012,0.013,-0.0068,64.43,-67.65,6.88,151.82,-25.51,-126.6,178805,2016-03-24 16:59:39:577
7.2261,4.2331,-5.314,7.1002,4.2148,-5.2909,0.0323,-0.0023,-0.0774,7.0000E-04,-0.0019,0.009,64.42,-67.94,4.91,152.81,-25.52,-126.67,178904,2016-03-24 16:59:39:676
7.1185,4.1519,-5.2836,7.101,4.2079,-5.2953,0.016,-0.0263,-0.0253,-0.0015,-0.0012,0.0161,64.6,-66.79,5.76,151.77,-25.41,-126.71,179004,2016-03-24 16:59:39:776
7.3442,4.2367,-5.4881,7.0966,4.2088,-5.3004,0.0494,-0.0182,0.0423,-0.004,-0.0091,-0.0104,66.04,-68.25,6.3,151.8,-25.41,-126.73,179105,2016-03-24 16:59:39:877
7.1851,4.2716,-5.5284,7.0776,4.2,-5.3327,-0.0329,-0.0032,-0.0956,0.0103,-0.0174,-0.0012,63.25,-67.53,4.79,152.85,-25.36,-127,179205,2016-03-24 16:59:39:977
7.2325,4.1737,-5.3513,7.0758,4.1879,-5.3446,-0.0445,-0.0482,-0.0473,-0.002,-0.0019,0.0113,65.28,-67.98,5.13,152.34,-25.28,-127.07,179305,2016-03-24 16:59:40:077
7.1655,4.244,-5.2972,7.0835,4.1766,-5.3432,0.0248,0.0194,0.0799,-0.0073,-0.0073,0.0072,64.76,-66.74,6.99,151.05,-25.21,-127.06,179404,2016-03-24 16:59:40:176
7.16,4.1051,-5.3388,7.0881,4.171,-5.3415,0.1222,0.0478,-2.0000E-04,7.0000E-04,-0.0163,0.0141,64.25,-68.79,6.65,151.83,-25.21,-127.03,179504,2016-03-24 16:59:40:276
7.112,4.1248,-5.4468,7.0865,4.1525,-5.3581,-0.0381,-0.0398,-0.0167,0.0063,-0.0218,0.0059,64.44,-68.51,7.35,151.84,-25.1,-126.99,179605,2016-03-24 16:59:40:377
7.2382,4.2721,-5.505,7.0801,4.1457,-5.3718,0.0047,-0.0352,-0.041,-0.0022,-0.02,0.0064,64.89,-68.96,7.66,151.05,-25.05,-127.09,179704,2016-03-24 16:59:40:476
7.1506,4.3228,-5.4625,7.0672,4.1517,-5.3841,0.0314,0.0636,0.008,-0.0013,-0.0122,-0.0019,64.04,-69.09,6.49,152.17,-25.05,-127.3,179804,2016-03-24 16:59:40:576
7.0649,4.4676,-5.4862,7.0561,4.161,-5.3915,-0.0052,0.1088,-0.0075,0.0053,-0.0173,-5.0000E-04,64.26,-67.62,6.77,151.4,-25.05,-127.3,179904,2016-03-24 16:59:40:676
6.9547,4.724,-5.4548,7.0137,4.2432,-5.3827,-0.1444,0.4072,0.01,-0.0071,0.0121,-0.0059,64.39,-69.47,7.01,151.6,-25.64,-127.5,180004,2016-03-24 16:59:40:776
6.8394,4.9682,-5.3036,6.9893,4.3076,-5.3633,-0.2281,0.4806,0.0564,-0.011,0.0179,-0.0047,65.27,-68.89,7.65,150.87,-25.64,-127.5,180104,2016-03-24 16:59:40:876
6.7544,5.0244,-5.219,6.9294,4.4439,-5.3297,-0.2021,0.5336,0.0867,-0.0068,-0.0051,-0.0039,64.38,-70.15,7.2,151.91,-26.51,-127.51,180205,2016-03-24 16:59:40:977
6.6254,5.1647,-5.018,6.9014,4.5186,-5.3032,-0.3532,0.5505,0.2331,-0.004,0.0151,0.0057,64.03,-69.71,7.73,151.43,-27.44,-127.54,180304,2016-03-24 16:59:41:076
6.8622,5.105,-5.3575,6.8399,4.6373,-5.2802,-0.0216,0.5596,0.1209,0.0172,-0.0423,0.0013,63.3,-69.95,8.24,151.66,-27.89,-127.56,180405,2016-03-24 16:59:41:177
6.9234,5.105,-5.4397,6.7762,4.7089,-5.2991,-0.1697,0.3145,-0.1648,-0.0201,-0.0103,0,64.04,-67.96,6.54,151.3,-28.46,-127.85,180505,2016-03-24 16:59:41:277
6.9113,5.2399,-5.2451,6.7616,4.7466,-5.284,0.0617,0.3514,-0.0497,-0.0297,-6.0000E-04,0.0033,62.67,-69.12,5.75,152.2,-28.7,-128.03,180604,2016-03-24 16:59:41:376
6.5746,5.1138,-5.2695,6.7223,4.8308,-5.2578,-0.242,0.1922,0.0846,0.0048,-0.0096,-0.0126,63.61,-68.49,7.88,150.73,-29.51,-128.03,180704,2016-03-24 16:59:41:476
6.8704,5.0757,-5.0817,6.7136,4.8511,-5.2503,-0.3046,0.0412,0.288,0.0061,-0.0056,0.024,63.1,-69.23,7,151.71,-29.51,-128.03,180805,2016-03-24 16:59:41:577
6.7019,5.0296,-5.9931,6.6769,4.8604,-5.2883,0.2186,0.2094,-0.2927,0.0374,-0.0515,-0.0298,62.73,-69.31,8.26,151.26,-29.71,-127.93,180905,2016-03-24 16:59:41:677
6.6859,5.0668,-5.8969,6.6357,4.8501,-5.3493,-0.2655,-0.0572,-0.5801,0.0374,-0.0515,-0.0298,62.73,-69.31,8.26,151.26,-29.71,-127.93,181005,2016-03-24 16:59:41:777
6.9767,5.0526,-5.2633,6.6652,4.88,-5.285,-0.0898,-0.0194,-0.0125,-0.0707,0.0537,0.0166,64.23,-68.43,7.4,150.95,-29.72,-128.58,181104,2016-03-24 16:59:41:876
6.9454,5.1113,-4.966,6.6844,4.8986,-5.2434,0.1384,0.0336,0.1785,-0.0644,-0.0073,0.0159,63.45,-67.96,7.16,151.26,-29.84,-128.41,181205,2016-03-24 16:59:41:977
6.4519,5.5713,-5.3459,6.6628,4.9326,-5.239,-0.2066,0.1085,0.2902,3.0000E-04,-0.0208,-0.031,63.35,-70.81,9.15,151.19,-30.08,-128.06,181304,2016-03-24 16:59:42:076
5.8144,5.7403,-4.9147,6.6481,4.9581,-5.2336,-0.3248,0.3663,0.0698,0.0124,-0.0034,-0.0466,62.97,-71.43,8.72,151.13,-30.2,-128.18,181404,2016-03-24 16:59:42:176
7.4535,6.5237,-4.9391,6.6354,5.0399,-5.1713,0.5418,1.1254,0.1559,-0.0554,0.0542,-0.0279,64.02,-71.03,9,151.06,-30.64,-127.94,181505,2016-03-24 16:59:42:277
6.3312,5.5952,-5.4907,6.5972,5.0636,-5.1968,0.0184,0.9722,0.0571,-0.0595,-0.1444,-0.0038,63.22,-72.7,8.74,151.76,-30.93,-127.93,181605,2016-03-24 16:59:42:377
5.7044,5.7363,-4.6495,6.6008,5.083,-5.1733,-0.5408,0.6463,0.3557,0.0377,0.065,-0.0333,62.84,-70.78,7.25,152.13,-31.1,-128.23,181705,2016-03-24 16:59:42:477
7.9863,6.1335,-5.2402,6.5711,5.0941,-5.2001,-0.9076,0.4335,0.5036,0.006,-0.0257,-0.0102,61.69,-70.76,6.93,152.42,-31.22,-128.09,181804,2016-03-24 16:59:42:576
5.7319,5.3611,-5.3102,6.554,5.0834,-5.2321,0.016,0.6643,-0.0538,0.0166,0.0191,0.0206,60.17,-71.72,6.47,153.3,-31.29,-128.69,181904,2016-03-24 16:59:42:676
6.114,5.7384,-4.975,6.6219,5.0508,-5.1779,-1.0388,0.1715,0.3443,0.0355,0.1067,0.0183,61.33,-69.65,5.4,153.3,-31.07,-128.34,182004,2016-03-24 16:59:42:776
6.7509,5.6468,-4.9824,6.632,5.0279,-5.1872,-0.4453,0.521,0.5951,-0.032,-0.0647,0.1057,61.59,-70.8,6.7,152.45,-31,-128.02,182105,2016-03-24 16:59:42:877
6.6717,5.6249,-5.2686,6.6531,4.9667,-5.219,-0.0126,0.6168,0.1645,0.0446,0.0192,0.0535,60.98,-71.32,5.02,153.62,-30.63,-128.18,182204,2016-03-24 16:59:42:976
6.639,5.2292,-5.2682,6.6733,4.934,-5.2243,-0.0912,0.2361,0.1119,0.0372,0.0074,0.0551,60.93,-70.46,5.05,153.44,-30.21,-128.06,182305,2016-03-24 16:59:43:077
6.7209,4.9258,-5.1861,6.7186,4.8626,-5.2332,-0.1892,-0.0484,0.176,0.0278,0.0023,0.067,61.81,-69.3,5.14,153,-29.98,-128,182404,2016-03-24 16:59:43:176
6.5694,5.0473,-4.2536,6.7519,4.8187,-5.2309,-0.1202,-0.1317,0.169,0.0239,0.0205,0.0808,61.47,-68.17,5.5,152.5,-29.73,-127.92,182505,2016-03-24 16:59:43:277
6.5036,4.9598,-4.724,6.7728,4.8224,-5.2004,-0.7581,0.0981,0.7373,0.02,-0.0759,-5.0000E-04,61.51,-67.95,8.44,151.53,-29.48,-127.34,182604,2016-03-24 16:59:43:376
6.8458,5.3591,-5.8686,6.7329,4.824,-5.2504,0.133,0.5443,0.5828,0.0345,-0.127,-0.0016,60.42,-67.84,9.08,151.34,-29.46,-127.52,182704,2016-03-24 16:59:43:476
7.0572,5.1805,-5.5988,6.7259,4.8056,-5.2762,0.0639,0.2611,-0.3559,0.0179,0.0525,0.021,59.16,-67.88,9.03,151.2,-29.42,-128.22,182804,2016-03-24 16:59:43:576
6.7616,4.6939,-5.9048,6.7425,4.7944,-5.2653,0.2143,0.2369,-0.1844,-0.0096,0.0018,0.0282,60.04,-65.66,8.48,151.09,-29.27,-127.99,182904,2016-03-24 16:59:43:676
7.7725,5.3288,-5.7116,6.7165,4.778,-5.3132,0.5512,0.1253,-0.5665,-0.0716,-0.0376,0.001,58,-67.4,7.71,151.73,-29.18,-128.16,183004,2016-03-24 16:59:43:776
7.6109,5.3568,-4.9123,6.6993,4.8204,-5.2966,0.0695,0.1679,-0.1442,-0.0422,0.0286,-0.0961,58.77,-65.73,11.39,149.53,-29.44,-128.33,183104,2016-03-24 16:59:43:876
6.738,5.5221,-4.983,6.5823,4.9884,-5.2877,0.3845,0.5038,0.7522,-0.1057,-0.0328,-0.1328,58.09,-67.15,11.76,149.53,-29.97,-128.27,183204,2016-03-24 16:59:43:976
5.3916,5.4892,-5.1732,6.4079,5.1192,-5.3761,0.0012,0.4702,0.0268,-0.0436,-0.2627,-0.1275,57.93,-69.56,12.28,150.1,-30.58,-128.78,183305,2016-03-24 16:59:44:077
6.9757,6.1284,-6.5188,6.3343,5.1588,-5.4252,-1.0081,0.2534,0.4316,0.0331,0.0774,-0.125,57.46,-66.2,11.07,149.13,-31.47,-130,183405,2016-03-24 16:59:44:177
6.126,5.8557,-6.2694,6.2915,5.1928,-5.4426,0.4014,1.2925,-0.9553,-0.0572,0.007,-0.011,54.31,-67.17,13.62,147.88,-31.94,-131.24,183505,2016-03-24 16:59:44:277
7.2066,5.675,-4.6261,6.3655,5.1624,-5.3852,-0.2985,0.43,-0.5931,0.0368,0.2112,0.0718,53.66,-68.98,15.58,147.56,-31.97,-130.86,183604,2016-03-24 16:59:44:376
6.0276,5.2407,-4.965,6.325,5.1702,-5.4253,0.5652,0.4276,0.9301,-0.0616,-0.1932,0.0385,54.18,-76.87,16.86,149.58,-31.76,-130.15,183704,2016-03-24 16:59:44:476
6.5671,5.5156,-5.5293,6.3005,5.1732,-5.4508,-0.283,0.0017,0.6512,0.0603,-0.0715,-0.0414,54.03,-76.12,15.53,149.52,-31.84,-130.86,183804,2016-03-24 16:59:44:576
6.3749,5.426,-6.0258,6.3095,5.1851,-5.4291,-0.3875,0.0341,-0.1629,0.0265,0.0366,-0.0266,53.6,-73.01,14.09,149.81,-31.92,-130.71,183905,2016-03-24 16:59:44:677
7.1267,5.9102,-4.8266,6.3522,5.1818,-5.3822,0.3622,0.2698,0.0085,0.0316,0.1024,-0.006,54.04,-74.13,14.56,149.75,-31.9,-130.27,184004,2016-03-24 16:59:44:776
6.4827,5.5279,-5.4643,6.3832,5.2013,-5.3265,0.5546,0.2326,0.3802,-0.0027,-0.0512,0.0025,53,-78.22,14.97,151.17,-32.03,-129.84,184104,2016-03-24 16:59:44:876
6.1161,5.338,-5.156,6.3817,5.2031,-5.3265,-0.1661,0.1782,-0.0695,0.0766,0.0644,-0.0619,54.07,-78.09,10.84,152.97,-32.04,-129.85,184204,2016-03-24 16:59:44:976
7.318,5.867,-5.3987,6.4034,5.225,-5.2789,-0.2309,0.1204,0.494,-0.0106,-0.0158,0.0054,52.96,-78.23,7.6,154.88,-32.19,-129.5,184304,2016-03-24 16:59:45:076
6.4236,5.4064,-5.3535,6.4064,5.2235,-5.2767,0.4569,0.3226,0.0342,-0.0247,-0.01,0.0249,51.93,-78.89,5.74,156.38,-32.18,-129.48,184405,2016-03-24 16:59:45:177
6.6793,5.6015,-5.3594,6.4446,5.204,-5.2494,-0.292,-0.0528,-0.0571,0.0662,0.0787,-0.0208,52.84,-78.68,3.07,157.81,-32.05,-129.16,184504,2016-03-24 16:59:45:276
6.4335,5.1588,-4.755,6.516,5.205,-5.1596,-0.1226,-0.0934,0.4994,-0.0345,0.015,0.04,52.46,-80.19,0.9,159.64,-32.06,-128.37,184604,2016-03-24 16:59:45:376
6.9223,5.6355,-5.4607,6.5056,5.2076,-5.1699,0.4065,0.2046,0.3901,0.0103,-0.0486,-0.0236,52.79,-81.41,1.23,159.56,-32.06,-128.37,184705,2016-03-24 16:59:45:477
6.0224,5.1681,-5.522,6.4844,5.2152,-5.1888,-0.2563,0.0013,-0.171,0.0279,0.0564,-0.0158,53.14,-81.05,-0.84,160.43,-32.13,-128.67,184804,2016-03-24 16:59:45:576
6.4414,5.3967,-5.1844,6.4867,5.2268,-5.1744,0.2019,0.0637,-0.4353,-0.0476,0.0017,-0.0248,53.33,-78.72,-1.54,160.64,-32.21,-128.58,184904,2016-03-24 16:59:45:676
7.0763,5.5448,-5.1886,6.4733,5.2572,-5.1604,0.1471,0.011,-0.2183,-0.015,-0.0223,-0.0432,54.17,-81.68,-4.02,161.86,-32.42,-128.56,185005,2016-03-24 16:59:45:777
6.8792,5.367,-5.361,6.4858,5.2755,-5.1257,0.5094,0.1847,0.0797,-0.0355,-0.0192,-0.0152,55.45,-81.27,-5.07,161.93,-32.42,-128.56,185104,2016-03-24 16:59:45:876
6.6865,5.3916,-5.2796,6.4802,5.284,-5.1241,0.0054,-0.0949,-0.1668,0.0083,0.027,-0.0416,55.69,-81.4,-4.3,161.29,-32.54,-128.32,185204,2016-03-24 16:59:45:976
6.754,5.5712,-5.2968,6.479,5.2864,-5.1232,-0.0361,-0.1292,-0.0469,-0.0355,0.0555,-0.0226,54.53,-78.52,-4.44,161.23,-32.62,-128.34,185306,2016-03-24 16:59:46:078
6.8996,5.4344,-5.2374,6.4852,5.271,-5.1313,0.2121,-0.0914,0.1129,0.0158,-0.0432,-0.0034,56.28,-80.3,-4.34,161.11,-32.51,-128.35,185404,2016-03-24 16:59:46:176
6.119,5.1425,-5.404,6.4852,5.2651,-5.1372,0.0644,-0.0914,-0.0495,0.0027,-0.0051,-0.0142,57.2,-81.4,-2.96,160.5,-32.47,-128.38,185504,2016-03-24 16:59:46:276
6.9382,5.3884,-5.0043,6.4866,5.2412,-5.1598,0.1213,-0.0757,0.0627,0.021,0.0094,0.0101,58.18,-79.44,-4.97,160.76,-32.41,-128.67,185604,2016-03-24 16:59:46:376
6.7945,5.2908,-5.138,6.5041,5.2284,-5.1508,0.2876,-0.0463,0.01,-0.02,0.0081,0.009,59.53,-78.95,-2.88,159.41,-32.22,-128.38,185704,2016-03-24 16:59:46:476
6.4347,4.9951,-5.2065,6.5154,5.2137,-5.1514,-0.0182,-0.1275,-0.1073,0.0127,0.0207,-0.0244,60.32,-79.6,-2.18,159.12,-32.12,-128.33,185804,2016-03-24 16:59:46:576
7.1382,5.3184,-5.4496,6.5021,5.1967,-5.1853,0.1833,-0.0373,-0.2243,-0.0169,-0.0072,0.0017,60.43,-76.69,-2.57,158.96,-32,-128.57,185904,2016-03-24 16:59:46:676
6.9886,4.8172,-4.9655,6.5374,5.1634,-5.1741,0.3034,-0.1694,0.0377,-0.0284,-0.0017,0.0367,60.19,-77.98,-1.23,158.15,-32,-128.57,186004,2016-03-24 16:59:46:776
6.3837,5.3556,-5.4583,6.5194,5.1545,-5.2056,-0.0739,0.2157,0.1131,0.0444,-0.0436,-0.0324,61.93,-76.73,-1.01,157.56,-31.55,-128.4,186104,2016-03-24 16:59:46:876
6.8316,5.1339,-5.2285,6.5363,5.1349,-5.2039,-0.1569,-0.2235,0.0182,0.0093,0.0401,0.0096,61.87,-76.05,-0.66,157.26,-31.71,-128.61,186204,2016-03-24 16:59:46:976
7.1981,5.0172,-5.4104,6.5781,5.1078,-5.1777,0.2476,-0.1727,0.0764,0.0065,-0.0702,-0.0057,62.12,-77.55,0.5,157.36,-31.39,-128.21,186304,2016-03-24 16:59:47:076
6.9114,5.241,-5.937,6.5635,5.0828,-5.2207,0.2588,-0.1317,-0.1411,0.0459,-0.0517,-0.0434,61.91,-76.5,0.23,157.02,-31.22,-128.5,186404,2016-03-24 16:59:47:176
6.7838,5.3221,-5.4517,6.5283,5.1014,-5.2466,-0.0216,-9.0000E-04,-0.094,-0.0382,0.0206,-0.0281,63.21,-75.43,1.1,155.73,-31.35,-128.79,186504,2016-03-24 16:59:47:276
7.4604,5.6365,-5.5917,6.5221,5.1096,-5.2464,0.1184,-0.0856,0.0146,-0.0221,-0.0404,-0.0279,64.08,-75.32,0.92,155.5,-31.35,-128.79,186605,2016-03-24 16:59:47:377
6.7563,5.145,-5.2607,6.5144,5.1254,-5.2406,-0.3233,-0.1148,-0.1779,0.0137,0.0381,-0.0228,63.49,-72.53,1.37,155.3,-31.51,-128.82,186704,2016-03-24 16:59:47:476
7.1276,5.2,-5.4047,6.5177,5.1202,-5.2415,-0.0625,-0.1886,0.0614,-0.011,-0.0066,-0.0116,62.59,-73.08,2.59,154.3,-31.51,-128.82,186804,2016-03-24 16:59:47:576
6.6797,4.9208,-5.5148,6.5551,5.1048,-5.2098,0.1491,-0.1731,0.0877,0.0238,0.0329,-0.0148,64.04,-74.86,2.13,155.18,-31.37,-128.48,186904,2016-03-24 16:59:47:676
6.8199,5.0915,-5.2543,6.5735,5.0718,-5.2189,0.2128,-0.2491,-0.1115,0.003,-0.0081,-0.0152,63.31,-74.5,1.37,155.9,-31.37,-128.48,187004,2016-03-24 16:59:47:776
6.6261,4.7454,-5.2341,6.6167,5.0272,-5.2074,0.3276,-0.2023,0.0694,0.0128,-0.031,-0.0116,62.83,-74.57,1.78,155.47,-31.06,-128.36,187105,2016-03-24 16:59:47:877
7.3842,5.1518,-5.5816,6.6043,5.0026,-5.2467,-0.3145,-0.4491,0.0986,0.0355,-0.0171,-0.0205,62.24,-73.95,1.73,155.57,-30.84,-128.2,187205,2016-03-24 16:59:47:977
7.164,4.7787,-5.566,6.6209,4.9762,-5.2509,-0.1176,-0.2429,0.1008,0.0201,0.0046,0.0212,63.73,-73.74,2.22,154.96,-30.57,-128.47,187305,2016-03-24 16:59:48:077
6.5504,4.6562,-5.5988,6.6407,4.8955,-5.3014,0.166,-0.2268,0.0033,0.0374,-0.046,-0.0272,64.04,-74.38,2.24,154.92,-30.17,-128.51,187404,2016-03-24 16:59:48:176
6.6489,4.6429,-5.4697,6.6369,4.8696,-5.3301,-0.0986,-0.2745,-0.1087,0.0127,-0.0169,0.0125,62.63,-72.87,2.74,154.3,-29.77,-128.77,187504,2016-03-24 16:59:48:276
6.984,4.8135,-5.4691,6.6544,4.8221,-5.3513,0.0011,-0.2602,-0.0809,0.0122,-0.0143,0.0037,62.24,-72.58,3.69,154.01,-29.45,-128.81,187604,2016-03-24 16:59:48:376
6.7819,4.5399,-5.4437,6.6716,4.8035,-5.3466,0.1346,-0.1043,0.014,0.0042,0.0105,0.0036,62.57,-72.86,3.22,154.32,-29.33,-128.71,187704,2016-03-24 16:59:48:476
6.7253,4.7068,-5.4698,6.6951,4.7562,-5.3596,-0.0738,-0.1462,0.0932,0.0063,0.0062,0.0097,63.37,-72.81,3.22,154.33,-29.01,-128.68,187805,2016-03-24 16:59:48:577
6.9196,4.8279,-5.519,6.7165,4.7345,-5.352,0.0986,-0.1851,0.0573,0.002,0.0143,0.0048,63.65,-72.54,1.73,154.59,-29.01,-128.68,187904,2016-03-24 16:59:48:676
6.7756,4.552,-5.3182,6.7557,4.6942,-5.3381,0.132,-0.2107,0.0618,0.0074,0.0132,0.0099,63.22,-72.43,2.84,154.28,-28.6,-128.31,188004,2016-03-24 16:59:48:776
6.9479,4.7755,-5.424,6.7575,4.6915,-5.3382,-0.1112,-0.1164,0.0579,0.0034,0.0122,-0.0052,63.75,-72.38,3.35,154.05,-28.6,-128.31,188104,2016-03-24 16:59:48:876
6.8354,4.7668,-5.5969,6.7776,4.6773,-5.3252,-0.1421,-0.1453,-0.0105,0.0013,0.0286,5.0000E-04,62.22,-72.3,2.83,154.6,-28.49,-128.16,188204,2016-03-24 16:59:48:976
6.9365,4.671,-5.2503,6.7792,4.6733,-5.3266,-0.0216,0.0222,-0.1789,-0.0091,0.0265,0.0098,62.04,-72.58,2.95,154.83,-28.49,-128.16,188304,2016-03-24 16:59:49:076
6.5865,4.3194,-5.5229,6.798,4.6605,-5.3139,0.0903,-0.037,0.1046,0.0023,-0.0093,-0.0016,63.73,-73.39,2.9,154.43,-28.37,-128.01,188405,2016-03-24 16:59:49:177
7.1229,4.3389,-5.4835,6.8015,4.6401,-5.3272,-0.1014,-0.1917,-0.0979,0.0067,0.0178,0.0019,62.33,-73.21,2.92,154.9,-28.37,-128.01,188504,2016-03-24 16:59:49:276
6.8073,4.1196,-5.1352,6.8776,4.5577,-5.3006,0.0176,-0.3337,0.1654,-0.0183,0.0205,0.0151,62.47,-73.56,2,155.68,-27.89,-127.87,188604,2016-03-24 16:59:49:376
7.1697,4.3191,-5.724,6.8882,4.4749,-5.3571,0.2289,-0.1994,-0.2603,0.0038,0.0104,0.0184,63.57,-72.77,2.28,154.95,-27.15,-127.87,188704,2016-03-24 16:59:49:476
6.7983,3.9008,-5.4248,6.9226,4.4133,-5.3638,-0.0988,-0.4969,0.0184,0.0076,0.0203,0.0364,62.5,-73.24,2.28,155.44,-27.15,-127.87,188804,2016-03-24 16:59:49:576
6.6879,3.8385,-5.7809,6.9488,4.3261,-5.4009,-0.2324,-0.3091,-0.2187,0.0066,0.0195,0.0126,63.44,-70.45,1.27,154.97,-26.18,-127.86,188904,2016-03-24 16:59:49:676
7.3002,3.8944,-5.4124,6.9775,4.2744,-5.405,0.1375,-0.3136,-0.0786,-0.0106,9.0000E-04,0.038,63.16,-72.71,2.05,155.16,-26.18,-127.86,189004,2016-03-24 16:59:49:776
6.9277,4.2574,-5.4863,7.0139,4.1931,-5.4216,0.2999,-0.1532,-0.0173,0.0268,-0.026,-0.0216,62.67,-70.23,1.57,154.49,-25.31,-127.7,189104,2016-03-24 16:59:49:876
6.8856,4.0923,-5.3877,6.9991,4.1943,-5.4398,-0.0211,0.0116,-0.2014,-0.0184,0.0201,-0.0036,62.84,-70.46,1.99,154.49,-25.31,-127.7,189205,2016-03-24 16:59:49:977
7.3157,4.3706,-5.6768,6.9784,4.2027,-5.4598,0.2239,0.0891,-0.0307,0.01,-0.0268,-0.007,61.86,-69.58,2.75,154.1,-25.35,-127.95,189304,2016-03-24 16:59:50:076
6.5789,4.0005,-5.4256,6.9711,4.1876,-5.4807,-0.2931,-0.2244,0.0826,0.0323,0.0195,-0.0017,62.19,-68.8,3.06,153.73,-25.28,-128.17,189404,2016-03-24 16:59:50:176
6.8585,4.0648,-5.7352,6.9546,4.1609,-5.5219,0.1132,0.0116,-0.1507,-0.0089,-0.0758,-0.0087,61.51,-68.79,2.73,153.65,-25.16,-128.3,189505,2016-03-24 16:59:50:277
7.1325,4.0619,-5.5782,6.968,4.1281,-5.5296,0.0443,-0.2425,0.0371,-0.0063,0.0065,0.0266,61.35,-68.87,2.93,153.82,-24.89,-128.43,189604,2016-03-24 16:59:50:376
7.5466,4.1429,-5.7395,6.9604,4.0944,-5.5641,0.0284,-0.1187,-0.0017,7.0000E-04,-0.0279,0.0096,61.87,-66.57,5.75,151.38,-24.68,-128.64,189705,2016-03-24 16:59:50:477
6.9512,3.9465,-5.7192,6.9765,4.0759,-5.5575,0.497,0.0133,-0.1232,0.0077,-0.035,-0.0056,61.84,-64.92,6.23,150.82,-24.68,-128.64,189805,2016-03-24 16:59:50:577
7.0163,4.016,-5.7246,6.9705,4.0498,-5.584,0.2982,0.0017,-0.1025,0.0073,-0.0394,-0.0152,61.96,-65.14,8.04,149.75,-24.49,-128.68,189905,2016-03-24 16:59:50:677
7.4198,4.2,-5.7414,6.9701,4.0538,-5.5817,0.4263,0.0357,0.1358,-0.0183,-0.0264,-0.035,60.95,-64.93,11.06,148.43,-24.42,-128.69,190004,2016-03-24 16:59:50:776
7.1947,4.0597,-6.1093,6.9514,4.0527,-5.6056,0.2331,0.0352,-0.3033,-0.0048,-0.0437,-0.023,61.13,-65.67,12.71,147.72,-24.42,-128.69,190105,2016-03-24 16:59:50:877
7.2415,4.1505,-6.1007,6.939,4.0778,-5.6029,0.2124,0.0077,-0.1885,-0.0371,0.0217,-0.0414,62.76,-64.92,15.05,145.86,-24.57,-128.92,190204,2016-03-24 16:59:50:976
7.7569,4.2575,-5.6737,6.9439,4.0859,-5.591,-0.0601,-0.1712,0.0669,-0.0456,0.0166,-0.0212,61.74,-65.37,16.76,145.08,-24.57,-128.92,190304,2016-03-24 16:59:51:076
6.7374,3.9421,-5.6348,6.9632,4.0611,-5.5849,-0.2024,-0.168,-0.1604,0.0076,0.0247,-0.0016,60.48,-67.37,17.02,146.28,-24.57,-128.62,190405,2016-03-24 16:59:51:177
6.8729,3.9213,-5.5649,6.9715,4.0527,-5.5807,-0.3797,-0.2343,0.0972,-0.009,0.0429,0.0099,59.38,-68.39,17.33,146.76,-24.46,-128.73,190504,2016-03-24 16:59:51:276
7.0117,3.867,-5.3344,7.0036,4.0328,-5.5549,0.0594,-0.0099,0.169,-0.0011,0.0034,0.0238,58.56,-71.21,19.69,146.35,-24.28,-128.42,190604,2016-03-24 16:59:51:376
6.9039,4.0184,-5.698,7.0136,4.0158,-5.5546,-0.0913,-0.1795,0.2069,0.0092,-0.0127,0.0082,57.31,-72.7,19.67,147.39,-24.17,-128.38,190705,2016-03-24 16:59:51:477
7.0602,3.884,-5.5174,7.0159,3.9902,-5.5701,-0.0883,-0.0038,-0.2183,-0.0103,0.0461,0.0282,54.98,-73.82,18.21,149.06,-24.1,-128.44,190804,2016-03-24 16:59:51:576
7.4406,4.1322,-5.5426,7.0577,3.9898,-5.5173,0.233,0.0241,0.0834,-0.0221,0.0569,0.0034,53.17,-76.21,17.09,150.57,-24.01,-128.45,190904,2016-03-24 16:59:51:676
7.0924,3.9745,-5.417,7.0915,4.0134,-5.4565,0.0046,-0.0218,0.1051,-0.0171,0.0329,-0.0182,52.07,-79.91,14.31,153.64,-24.16,-127.58,191004,2016-03-24 16:59:51:776
7.3468,4.1724,-5.3293,7.0896,4.0247,-5.4507,-0.2224,-0.1035,0.0353,-0.0099,0.0223,-0.0174,51.89,-79.82,13.27,154.13,-24.23,-127.55,191105,2016-03-24 16:59:51:877
7.3159,4.0021,-5.3175,7.1252,4.0182,-5.4089,-0.2554,-0.1571,0.153,0.0088,-0.0122,0.0166,49.72,-82.2,9.6,156.66,-24.26,-127.26,191205,2016-03-24 16:59:51:977
6.9398,3.7937,-5.321,7.1459,3.9914,-5.4015,-0.2312,-0.1724,0.0419,0.0111,0.029,8.0000E-04,50.96,-82.79,4.31,159.63,-24.11,-127.08,191305,2016-03-24 16:59:52:077
6.8276,3.7648,-5.2087,7.1583,3.9857,-5.3892,0.0739,-0.0547,0.0298,-0.0235,-0.0038,0.0034,51.23,-84.37,3.13,160.34,-23.98,-126.97,191405,2016-03-24 16:59:52:177
7.3614,3.8595,-5.4124,7.1619,3.9547,-5.4072,-0.1545,-0.1907,0.1096,0.0146,-0.0436,0.0261,51.42,-84.3,0.56,161.34,-23.94,-126.92,191504,2016-03-24 16:59:52:276
7.2085,3.8403,-5.4558,7.1824,3.9147,-5.4092,0.2762,-0.0708,-0.0997,0.0146,-0.0436,0.0261,51.42,-84.3,0.56,161.34,-23.94,-126.92,191605,2016-03-24 16:59:52:377
7.1894,3.7762,-5.3404,7.2031,3.8831,-5.4044,-0.079,-0.0971,0.0095,0.0068,0.0089,0.0115,53.36,-83.79,-2.89,162.74,-23.33,-126.88,191704,2016-03-24 16:59:52:476
7.5138,3.9702,-5.4937,7.2041,3.8775,-5.4071,0.0716,-0.0531,-0.1314,-0.0143,0.0108,-9.0000E-04,51.73,-81.08,-4.54,163.53,-23.33,-126.88,191804,2016-03-24 16:59:52:576
7.2974,3.8279,-5.3278,7.2315,3.8693,-5.3763,0.0677,-0.0487,0.0164,-0.0153,0.0187,0.0148,52.71,-81.06,-5.27,163.28,-23.29,-126.79,191904,2016-03-24 16:59:52:676
6.9919,3.7808,-5.6958,7.247,3.8694,-5.3553,0.1349,0.0163,-0.0381,-0.0125,0.032,0.0058,54.09,-81.98,-6.18,163.81,-23.24,-126.46,192004,2016-03-24 16:59:52:776
7.2351,3.8198,-5.1344,7.2581,3.8574,-5.3488,-0.1686,-0.0832,0.0271,-0.0076,0.0555,0.0214,53.65,-80.3,-8.2,164.47,-23.22,-126.52,192104,2016-03-24 16:59:52:876
7.4138,3.8617,-5.3186,7.2748,3.8421,-5.3372,0.0022,-0.0646,0.1969,-0.0144,-0.0033,0.0342,54.62,-80.29,-6.72,163.75,-23.16,-126.39,192204,2016-03-24 16:59:52:976
7.2659,3.6724,-5.5323,7.2872,3.8182,-5.3375,-0.2544,-0.11,-0.0205,0.0143,0.037,0.01,55.44,-79.29,-7.79,164.18,-22.99,-126.21,192304,2016-03-24 16:59:53:076
7.6122,3.6742,-5.3514,7.2976,3.8013,-5.3353,0.0182,-0.0521,-0.1433,-0.0061,0.0272,0.0175,56.36,-79.17,-7.22,163.38,-22.91,-126.22,192404,2016-03-24 16:59:53:176
7.5273,3.8094,-5.4317,7.3187,3.7761,-5.3243,0.1274,-0.0133,-0.009,0.0094,-0.028,-0.0139,57.9,-79.21,-6.99,162.95,-22.66,-125.96,192504,2016-03-24 16:59:53:276
7.7206,3.8865,-5.2919,7.3096,3.7699,-5.3412,-0.2165,-0.1473,-0.0877,0.0178,0.0192,-0.0213,58.5,-77.64,-6.7,162.68,-22.61,-126.16,192605,2016-03-24 16:59:53:377
8.0024,3.9793,-5.1777,7.3508,3.7907,-5.2694,0.4352,0.1553,0.052,-0.04,0.001,-0.0035,58.58,-77.51,-4.48,161.03,-22.63,-125.92,192704,2016-03-24 16:59:53:476
7.1522,3.6974,-5.2328,7.3451,3.7958,-5.2737,-0.1038,-0.0811,0.0413,0.0204,-0.0175,-0.0153,58.16,-77.86,-5.28,162.01,-22.8,-125.55,192804,2016-03-24 16:59:53:576
7.1198,3.7363,-5.3743,7.3267,3.7965,-5.2988,-0.2209,-0.0638,-0.1495,-0.0078,0.005,-0.002,59.51,-76.68,-5.66,161.62,-22.78,-125.88,192906,2016-03-24 16:59:53:678
7.7939,3.9177,-5.3063,7.3363,3.8086,-5.2767,0.4227,0.0946,0.129,-0.0208,-0.0601,0.0037,60.52,-78.07,-3.65,160.53,-22.83,-125.88,193004,2016-03-24 16:59:53:776
7.2275,3.7679,-5.7193,7.3149,3.8023,-5.3109,0.1139,-0.0345,0.0155,0.0402,-0.0668,-0.0269,60.57,-76.42,-4.18,160.11,-22.81,-125.98,193104,2016-03-24 16:59:53:876
6.7808,3.4821,-5.3362,7.2569,3.7942,-5.3955,-0.3098,-0.2029,0.1471,-0.0378,-0.0752,0.025,59.41,-75.89,-4.09,160.29,-22.76,-126.63,193205,2016-03-24 16:59:53:977
7.7534,4.0646,-5.1177,7.2536,3.8071,-5.3909,0.3739,0.1773,0.0729,-0.0312,-0.06,0.0034,61.21,-76.06,-2.12,158.75,-22.76,-126.63,193304,2016-03-24 16:59:54:076
7.1463,3.878,-5.715,7.2032,3.7852,-5.4733,-0.101,-0.0473,-0.1816,0.0723,-0.0052,-0.0272,59.97,-75.66,-2.66,159.4,-22.84,-126.87,193404,2016-03-24 16:59:54:176
7.2204,3.7496,-5.4896,7.1889,3.7796,-5.4959,-0.0578,0.0032,-0.1173,-0.0261,-0.0204,0.0168,59.66,-74.5,-2.14,158.29,-22.7,-127.23,193505,2016-03-24 16:59:54:277
7.3601,3.7612,-5.473,7.1928,3.7752,-5.4939,-0.0188,0.0013,0.161,0.0082,-0.023,-0.0016,61.19,-75.61,-2.29,158.35,-22.64,-127.37,193604,2016-03-24 16:59:54:376
7.3625,3.8978,-5.7079,7.1907,3.767,-5.5021,0.0138,-0.0258,0.0714,0.0082,-0.023,-0.0016,61.19,-75.61,-2.29,158.35,-22.64,-127.37,193704,2016-03-24 16:59:54:476
7.6626,4.0105,-5.5441,7.1651,3.7676,-5.5351,0.0795,0.0735,0.0052,0.0087,-0.0217,-8.0000E-04,61.51,-74.92,-2.54,158.19,-22.59,-127.69,193804,2016-03-24 16:59:54:576
6.9236,3.8177,-5.8126,7.1664,3.7719,-5.5304,0.3304,0.1742,-0.0558,0.0014,-0.0465,-0.0057,61.36,-74.86,-1.12,157.5,-22.62,-127.66,193904,2016-03-24 16:59:54:676
7.4431,4.1703,-5.3618,7.1354,3.8228,-5.5356,-0.0669,0.1787,0.0456,-0.0073,0.0276,-0.0366,61.49,-73,0.04,156.48,-22.74,-127.82,194004,2016-03-24 16:59:54:776
7.3303,4.039,-5.4116,7.1166,3.8466,-5.5432,-0.0134,0.1572,0.1859,0.0246,-0.0708,0.0121,62.31,-74.08,1.16,156.02,-23.03,-127.71,194104,2016-03-24 16:59:54:876
7.1942,4.0025,-5.9736,7.09,3.8466,-5.5773,-0.1397,0.0582,-0.0475,0.0502,-0.0524,-0.0184,63.56,-73.67,0.73,155.4,-23.09,-127.92,194204,2016-03-24 16:59:54:976
6.9414,3.9048,-5.9775,7.0531,3.8301,-5.6351,0.1104,0.0918,-0.3075,-0.0012,-0.0407,0.0165,62.34,-72.64,1.16,155.44,-23.05,-128.39,194305,2016-03-24 16:59:55:077
7.0304,3.9852,-5.4466,7.0205,3.8325,-5.674,-0.225,-0.0365,-0.4086,-0.0039,0.0058,-0.0083,64.25,-72.55,1.72,154.13,-23,-128.95,194404,2016-03-24 16:59:55:176
6.9077,3.9392,-5.6662,6.9874,3.8927,-5.674,-0.332,-0.1074,0.376,-0.0461,-0.0778,0.0029,64.35,-72.24,2.63,153.45,-23.23,-128.87,194504,2016-03-24 16:59:55:276
6.6594,4.9333,-6.3095,6.9552,3.9219,-5.6933,0.2948,0.336,0.019,0.0053,-0.1001,-0.0135,64.1,-72.54,2.44,154.08,-23.39,-129.08,194604,2016-03-24 16:59:55:376
6.1516,4.7513,-5.7625,6.9703,3.9437,-5.6597,-0.6834,0.8753,-0.3868,0.0249,0.11,-0.0151,64.14,-69.92,2.14,153.21,-23.64,-129.37,194704,2016-03-24 16:59:55:476
7.6768,5.5865,-5.7764,6.973,3.9667,-5.6403,-0.1833,1.0774,0.1502,-0.0357,0.0084,0.0138,65.55,-69.76,3.35,152.37,-23.71,-129.08,194804,2016-03-24 16:59:55:576
6.4576,5.3799,-5.6793,6.9231,4.0605,-5.635,-0.4089,1.1929,-0.1097,-0.0415,0.0318,-0.0439,63.78,-73.5,2.68,153.64,-24.46,-129.14,194905,2016-03-24 16:59:55:677
6.4607,5.6321,-5.2491,6.9156,4.1192,-5.6015,-0.5861,1.1598,0.2593,-0.0237,0.0396,-0.0681,63.99,-72.5,2.9,153.73,-24.84,-129.01,195004,2016-03-24 16:59:55:776
6.6284,5.771,-5.8938,6.8467,4.2367,-5.5986,-0.9083,1.2519,0.203,-0.0088,-0.0343,-0.0392,64.84,-74.82,3.27,153.94,-25.27,-129.07,195104,2016-03-24 16:59:55:876
5.5152,5.4703,-5.4298,6.8378,4.2626,-5.5897,0.0241,1.5857,-0.0828,-0.0024,0.0264,-0.0066,66.13,-73.83,2.61,153.38,-25.6,-129.27,195204,2016-03-24 16:59:55:976
6.5658,5.9343,-5.123,6.8857,4.2734,-5.5222,-1.2283,1.1772,0.2995,-0.0071,0.0274,0.0571,66.65,-71.44,1.65,153.22,-25.83,-128.73,195304,2016-03-24 16:59:56:076
5.2511,5.4479,-4.5711,6.9398,4.2749,-5.453,-1.5449,1.0826,1.0469,0.0164,-0.0252,0.0935,63.89,-72.32,3.41,153.89,-25.89,-128.38,195405,2016-03-24 16:59:56:177
6.808,6.0494,-4.3944,6.9438,4.2588,-5.4604,-0.7427,1.2605,0.7586,0.0018,-0.0101,0.0614,61.95,-75.93,2.4,155.89,-25.84,-128.16,195504,2016-03-24 16:59:56:276
5.7656,5.4821,-5.2119,6.9275,4.2479,-5.4895,-1.119,1.3384,0.4503,0.0848,0.0978,-0.0145,60.73,-74.11,2.96,155.08,-25.67,-128.39,195604,2016-03-24 16:59:56:376
6.2835,5.7878,-4.6512,6.9366,4.2583,-5.47,-1.0484,1.4324,0.9047,-0.0347,-0.0294,0.0574,60.49,-76.24,4.36,155.29,-25.67,-128.39,195704,2016-03-24 16:59:56:476
7.2977,6.2492,-5.0325,6.8509,4.298,-5.5464,0.3353,1.8085,0.5598,-0.0287,-0.1883,0.0311,60.83,-78.68,4.72,154.94,-25.99,-128.99,195804,2016-03-24 16:59:56:576
5.8319,5.6489,-5.6529,6.8241,4.3183,-5.5637,-0.6394,1.5454,0.0887,0.0365,-0.0973,-0.025,61.2,-78.54,2.66,155.79,-26.13,-129.19,195904,2016-03-24 16:59:56:676
6.6515,5.9672,-4.9172,6.8116,4.3898,-5.5228,-0.4346,1.4231,0.4601,-0.0011,0.0453,-0.0392,62.17,-74.38,0.83,155.46,-26.3,-129.12,196004,2016-03-24 16:59:56:776
7.0955,6.2583,-5.3261,6.7856,4.4265,-5.5256,-0.2764,1.4766,0.4996,-0.0811,-0.0436,0.0149,63.33,-74.24,0.38,155.69,-26.83,-129.16,196104,2016-03-24 16:59:56:876
6.3373,5.7673,-5.3182,6.7927,4.4825,-5.4714,-0.4162,1.3818,0.5622,0.0035,0.1098,-0.0221,61.17,-75.07,0.79,156.01,-27,-129.02,196204,2016-03-24 16:59:56:976
6.4611,5.8533,-5.282,6.7771,4.5104,-5.4679,-0.3637,1.224,0.3321,0.0039,-0.0306,-0.0192,61.54,-75.01,1.58,155.35,-27.38,-128.9,196304,2016-03-24 16:59:57:076
6.2889,5.8062,-4.8895,6.6795,4.7776,-5.36,-0.3403,0.995,0.4996,-0.0126,-0.0238,-0.0088,62.54,-76.63,0.87,156.13,-29.16,-128.75,196404,2016-03-24 16:59:57:176
6.525,5.8408,-4.8787,6.6284,4.8746,-5.336,-0.7882,0.5857,0.269,0.0174,0.0636,-0.0228,62.48,-76.58,0.45,156.86,-29.16,-128.75,196505,2016-03-24 16:59:57:277
6.7024,5.6726,-5.186,6.5901,4.9936,-5.2731,0.0704,0.6519,0.1422,0.0176,-0.034,0.0399,63.08,-77.32,-0.32,156.68,-30.61,-128.67,196604,2016-03-24 16:59:57:376
6.5715,5.3945,-4.8705,6.601,5.0316,-5.223,-1.1271,-0.0965,0.3168,0.0252,0.0479,0.0235,63.63,-74.84,-0.29,156.22,-30.87,-128.35,196705,2016-03-24 16:59:57:477
6.0692,5.5916,-4.8148,6.584,5.0203,-5.2553,0.1676,0.711,1.2735,0.0116,-0.1098,0.0473,64.08,-76.76,1.7,155.52,-30.79,-128.6,196804,2016-03-24 16:59:57:576
6.3459,5.5334,-5.0512,6.5063,4.9838,-5.3852,0.8835,0.8271,0.7751,0.0818,-0.1094,-0.0238,63.02,-78.33,2.2,155.42,-30.54,-129.61,196904,2016-03-24 16:59:57:676
6.3449,5.505,-4.6594,6.4682,4.9931,-5.4224,-0.1874,0.4213,0.402,0.066,-0.0398,-0.0653,62.72,-75.4,1.13,155.28,-30.54,-129.61,197004,2016-03-24 16:59:57:776
7.7718,6.213,-4.8656,6.416,5.0057,-5.4725,1.1005,0.9902,0.5801,-0.0077,-0.1464,0.0079,63.22,-73.69,2.52,153.81,-30.67,-130.14,197104,2016-03-24 16:59:57:876
5.3966,5.1704,-5.5663,6.3785,5.0053,-5.5166,-0.1802,0.5627,0.5732,0.0464,-0.0719,0.0057,62.41,-75.53,2.06,154.61,-30.69,-130.86,197204,2016-03-24 16:59:57:976
5.9483,5.7608,-6.0345,6.3101,4.986,-5.6119,0.2839,0.9237,-0.0613,0.0376,-0.0013,-0.0368,62.62,-71.68,1.13,153.69,-30.53,-131.35,197304,2016-03-24 16:59:58:076
5.9305,5.423,-5.6103,6.3112,5.0085,-5.5906,-0.2654,0.3857,-0.3229,-0.0687,0.0221,0.006,63.54,-71.73,0.05,153.83,-30.71,-131.54,197404,2016-03-24 16:59:58:176
8.042,6.6137,-6.184,6.2497,5.0592,-5.6139,0.8568,0.72,0.0316,-0.058,-0.2877,0.028,63.14,-72,2.43,152.9,-31.06,-131.93,197504,2016-03-24 16:59:58:276
6.8344,5.8678,-6.6334,6.2122,5.0846,-5.6326,1.5681,1.2191,-0.7246,-0.0135,0.0916,-0.0721,61.74,-71.61,1.86,153.15,-31.06,-131.93,197604,2016-03-24 16:59:58:376
6.0532,5.1854,-5.3829,6.2932,5.2047,-5.4293,-0.3842,0.1204,-0.1388,-0.0974,0.1796,-0.0481,63.62,-71.12,4.59,151.55,-32.06,-130.79,197705,2016-03-24 16:59:58:477
6.9451,6.3903,-4.2285,6.3142,5.2476,-5.3632,-0.7379,-0.1348,0.3613,-0.1802,-0.0732,0.0929,64.39,-74.31,5.54,151.78,-32.06,-130.79,197804,2016-03-24 16:59:58:576
5.3719,4.9393,-5.3855,6.4474,5.1375,-5.311,-1.641,-0.5201,0.0082,0.1023,0.0717,0.1472,61.56,-78.96,4.75,154.05,-32.35,-130.34,197904,2016-03-24 16:59:58:676
5.6071,5.1216,-3.9181,6.5956,5.1031,-5.1601,-1.1176,-0.1165,1.3464,-0.0318,0.2176,0.0469,62.99,-75.29,5.38,154.15,-31.36,-128.04,198005,2016-03-24 16:59:58:777
6.5763,5.4637,-3.461,6.5672,5.1009,-5.1984,-0.3709,-0.1266,1.1943,-0.1106,-0.1282,0.1238,64.7,-76.01,5.09,153.76,-31.34,-128.36,198104,2016-03-24 16:59:58:876
7.476,5.6902,-4.5382,6.4897,5.0263,-5.3656,0.3541,0.6511,0.1195,0.1918,-0.1051,0.0149,64.64,-78.99,5.04,153.77,-30.83,-129.58,198204,2016-03-24 16:59:58:976
6.0838,5.9485,-4.9363,6.4945,4.9879,-5.3957,-0.7586,0.4829,0.3765,0.0832,-0.0659,0.0253,63.51,-75.19,4.99,153.12,-30.83,-129.58,198304,2016-03-24 16:59:59:076
6.0608,7.6946,-6.5593,6.4597,5.0224,-5.4054,0.5969,0.7763,0.5208,-0.0593,-0.0928,-0.0322,64.25,-73.99,4.9,152.77,-30.51,-129.8,198404,2016-03-24 16:59:59:176
3.4192,6.0142,-5.647,6.4599,5.0613,-5.3688,-1.4438,2.2644,-0.7452,-0.0663,0.0171,0.0081,63.59,-74.81,2.09,154.39,-30.81,-129.92,198504,2016-03-24 16:59:59:276
11.9313,6.1968,-4.7572,6.5785,5.0875,-5.1972,-0.03,0.1888,-0.0154,-0.0467,0.1541,-0.0263,61.72,-74.92,0.7,155.84,-31.04,-129.03,198604,2016-03-24 16:59:59:376
10.0454,6.2369,-5.1114,6.6369,5.1025,-5.1076,2.0687,0.796,0.2709,-0.0803,0.1375,0.0172,60.96,-75.14,0.02,157.36,-31.35,-127.58,198705,2016-03-24 16:59:59:477
6.8865,6.1191,-6.8577,6.6048,5.1802,-5.0708,0.3275,0.662,-0.72,-0.06,-0.0421,-0.0501,59.69,-79.47,0.8,157.89,-31.89,-127.52,198804,2016-03-24 16:59:59:576
6.4812,5.8738,-6.1053,6.577,5.1802,-5.1067,-0.2958,0.1133,-0.7074,0.099,0.0174,-0.0785,60.55,-75.78,0.5,157.42,-31.89,-127.83,198907,2016-03-24 16:59:59:679
6.2742,7.2482,-6.414,6.5673,5.2019,-5.0972,0.4519,0.7019,-0.0087,-0.0198,-0.0064,0.0039,62,-75.19,-0.11,157,-32.04,-127.82,199004,2016-03-24 16:59:59:776
4.8176,2.7513,-5.3984,6.5578,5.2121,-5.0991,0.8566,2.2277,-0.8381,0.0274,0.0103,-0.0052,62.27,-74.27,0.08,156.78,-32.11,-127.87,199104,2016-03-24 16:59:59:876
3.7251,5.652,-6.1602,6.5699,5.188,-5.108,-0.0747,-0.0517,-0.2146,0.006,-0.0462,0.0142,61.58,-74.56,-0.12,156.97,-31.94,-127.86,199204,2016-03-24 16:59:59:976
6.318,3.9205,-5.566,6.5725,5.174,-5.1189,1.3082,-0.4728,0.0195,-0.0129,-0.0242,0.008,62.43,-74.7,0.73,156.44,-31.84,-127.91,199304,2016-03-24 17:00:00:076
6.3902,5.0835,-5.8464,6.5677,5.1707,-5.1284,0.3154,-0.1126,-0.284,0.0259,0.0025,0,62.35,-74.59,0.3,156.91,-31.82,-127.98,199404,2016-03-24 17:00:00:176
7.128,5.1603,-5.9137,6.5853,5.166,-5.1104,0.1595,-0.2617,-0.4144,-0.0357,-0.062,0.0227,62.85,-75.38,-1.25,157.25,-31.79,-127.85,199504,2016-03-24 17:00:00:276
6.239,4.7725,-5.7235,6.5848,5.1567,-5.1205,-0.1673,-0.423,-0.1855,0.023,0.0457,-0.0016,61.47,-75.84,-0.11,157.4,-31.72,-127.87,199604,2016-03-24 17:00:00:376
7.2916,5.0744,-5.7378,6.5993,5.1195,-5.1391,0.1851,-0.2477,-0.3342,-0.05,-0.009,0.0257,61.74,-76.3,-1.02,157.68,-31.69,-127.83,199705,2016-03-24 17:00:00:477
6.4129,4.3111,-5.6037,6.6428,5.0715,-5.1306,0.1504,-0.4003,-0.0092,0.0224,0.058,0.0167,62.15,-76.31,0.57,156.64,-31.47,-127.91,199804,2016-03-24 17:00:00:576
6.5302,4.8023,-5.5924,6.6528,4.9468,-5.2383,0.0356,-0.3705,-0.2322,-0.0147,0.0186,0.0223,62.36,-74.76,-0.45,156.87,-30.59,-128.02,199904,2016-03-24 17:00:00:676
6.6653,4.7378,-5.2623,6.6486,4.9244,-5.2647,-0.2664,-0.2496,-0.1345,-0.0147,0.0186,0.0223,62.36,-74.76,-0.45,156.87,-30.59,-128.02,200004,2016-03-24 17:00:00:776
6.5095,4.7876,-5.5996,6.6413,4.8933,-5.3027,0.0364,-0.0562,-0.2755,0.0092,-0.0281,-0.0145,61.39,-74.73,-1.49,157.29,-29.93,-128.61,200104,2016-03-24 17:00:00:876
6.9261,4.6594,-5.7833,6.6194,4.8799,-5.3424,-0.1897,-0.053,-0.1992,-0.0082,0.0308,0.0062,62.08,-74.02,-2.17,157.34,-29.93,-128.61,200204,2016-03-24 17:00:00:976
6.2263,4.2626,-4.4656,6.6849,4.8772,-5.2627,0.4738,0.0016,-0.2579,-0.0103,0.187,-0.023,61.54,-72.91,0.47,156.35,-29.82,-128.21,200304,2016-03-24 17:00:01:076
7.386,4.8532,-3.6568,6.6095,4.8528,-5.3792,-0.3831,-0.2963,-0.7044,-0.058,-0.1218,0.037,61.75,-72.99,0.96,155.84,-29.82,-128.21,200405,2016-03-24 17:00:01:177
7.0093,5.1322,-4.9398,6.4735,4.7968,-5.5906,2.1518,0.659,-0.3358,0.0622,-0.1828,0.0079,62.21,-75.69,1.39,155.36,-29.29,-130.3,200504,2016-03-24 17:00:01:276
5.1427,3.4131,-6.0307,6.4804,4.8304,-5.5536,0.0209,0.1057,0.2659,-0.0662,-0.0303,-0.0498,60.8,-75.3,0.94,155.14,-29.28,-130.81,200604,2016-03-24 17:00:01:376
5.0797,4.5776,-5.4074,6.2756,4.7474,-5.8523,1.9705,0.7757,0.1164,0.138,-0.4579,9.0000E-04,61.68,-71.35,0.23,153.96,-29.21,-131.77,200704,2016-03-24 17:00:01:476
6.549,4.5806,-4.9396,6.352,4.7221,-5.79,-0.4116,-0.7591,0.3043,0.0128,0.0923,0.0317,61.86,-69.62,1.13,152.74,-28.94,-132.67,200804,2016-03-24 17:00:01:576
6.3688,4.6902,-5.2082,6.3776,4.7198,-5.7637,0.1248,0.1132,0.9446,0.0069,0.0382,0.0131,62.82,-71.22,1.52,152.53,-28.77,-132.11,200905,2016-03-24 17:00:01:677
7.1562,4.9361,-5.3038,6.4237,4.7133,-5.7177,0.557,0.1718,0.4913,-0.0069,0.0068,0.0095,61.26,-72.29,1.48,153.94,-28.72,-131.8,201004,2016-03-24 17:00:01:776
6.5079,4.6303,-5.3665,6.4152,4.7217,-5.7203,-0.0614,0.0423,0.0665,0.0041,-0.001,-0.0202,61.27,-72.64,2.34,153.75,-28.73,-131.67,201104,2016-03-24 17:00:01:876
6.6253,4.4887,-4.0171,6.4231,4.7154,-5.7165,0.8411,0.1741,1.205,-0.0082,-0.0106,0.0242,61.96,-73.79,3.17,153.19,-28.77,-131.78,201204,2016-03-24 17:00:01:976
5.5688,5.463,-6.0866,6.4219,4.7395,-5.698,0.8334,0.2184,-0.7676,-0.0702,-0.0058,-0.0296,62.24,-74.46,3.23,153.29,-28.9,-131.58,201304,2016-03-24 17:00:02:076
6.1936,4.223,-6.8549,6.3268,4.6851,-5.8473,-0.0017,-0.6265,0.7163,0.1334,-0.3008,-0.0283,62.72,-72.89,1.38,153.15,-28.54,-132.74,201405,2016-03-24 17:00:02:177
5.2288,4.102,-5.7795,6.3332,4.6952,-5.8323,2.173,0.7373,-0.7147,-0.0464,0.209,-0.032,61.64,-72.45,0.64,153.23,-28.61,-132.64,201504,2016-03-24 17:00:02:276
7.2894,5.1831,-5.0911,6.4401,4.6819,-5.7249,-0.2052,-0.7529,-0.2422,0.0298,0.0775,-0.1056,60.69,-70.61,2.32,153.26,-28.59,-131.69,201604,2016-03-24 17:00:02:376
7.477,4.8689,-5.5284,6.4441,4.7177,-5.6909,0.5657,0.2682,0.3332,-0.1088,-0.0309,0.0538,61.5,-71.57,2.02,153.27,-28.52,-131.64,201705,2016-03-24 17:00:02:477
6.7174,4.8295,-5.8745,6.4334,4.7263,-5.696,0.4626,-0.1444,0.0551,0.0474,0.0347,-0.0631,61.53,-71.96,3.45,152.84,-28.81,-131.52,201804,2016-03-24 17:00:02:576
7.2067,4.7006,-5.7249,6.433,4.7336,-5.6904,0.3264,-0.1134,0.0049,-0.0126,0.0029,-0.016,62,-72.32,3.87,152.37,-28.86,-131.49,201904,2016-03-24 17:00:02:676
6.9354,4.5402,-5.6036,6.4544,4.7496,-5.6526,0.6221,-0.1179,0.1509,-2.0000E-04,0.0192,-0.0171,60.83,-74.91,3.08,153.89,-28.92,-131.36,202004,2016-03-24 17:00:02:776
7.2303,4.8966,-5.7797,6.4797,4.7255,-5.644,0.3242,-0.2203,0.0021,-2.0000E-04,0.0192,-0.0171,60.83,-74.91,3.08,153.89,-28.92,-131.36,202104,2016-03-24 17:00:02:876
7.2411,4.3725,-5.7305,6.5407,4.6719,-5.618,0.3734,-0.357,0.1171,-0.0317,-0.0307,0.0197,61.71,-72.69,4.24,153,-28.74,-130.74,202205,2016-03-24 17:00:02:977
6.9859,4.5018,-6.0409,6.5276,4.597,-5.6946,0.1103,-0.2129,-0.1719,0.0363,-0.0751,-0.0309,62.03,-74.64,4.2,153.43,-28.13,-130.78,202304,2016-03-24 17:00:03:076
6.5336,4.244,-5.8518,6.5348,4.5766,-5.7027,-0.0074,-0.2181,0.0952,-0.0154,-0.0387,0.0023,62.35,-73.61,3.97,153.03,-27.82,-131.11,202404,2016-03-24 17:00:03:176
6.4423,4.2664,-6.2099,6.5317,4.5018,-5.7654,-0.1016,-0.2559,0.0503,0.0152,-0.0498,0.0144,63.73,-72.58,3.57,152.16,-27.53,-131.34,202504,2016-03-24 17:00:03:276
6.5989,4.3224,-5.9677,6.548,4.4639,-5.7764,-0.0179,-0.2894,-0.0767,-0.0146,0.0103,0.0356,62.97,-72.4,3.93,152.11,-27.33,-131.43,202605,2016-03-24 17:00:03:377
6.9578,4.3498,-6.0592,6.5822,4.4245,-5.7679,0.2786,-0.0655,-0.261,-0.0252,0.0393,0.0187,63.28,-73.41,1.95,153.31,-26.97,-131.42,202704,2016-03-24 17:00:03:476
6.6996,4.1551,-5.4881,6.622,4.4075,-5.7353,0.1258,-0.1388,-0.0645,-0.0357,0.0491,0.0241,63.22,-72.88,3.4,152.92,-26.82,-131.23,202804,2016-03-24 17:00:03:576
7.2456,4.5452,-5.8441,6.6966,4.387,-5.664,0.1616,-0.0732,0.1077,-0.0104,0.0259,-0.0016,62.47,-71.38,2.86,153.2,-26.57,-130.22,202905,2016-03-24 17:00:03:677
7.3098,4.5815,-5.6704,6.7328,4.3795,-5.6267,0.3886,0.0218,0.0387,-0.0133,0.0217,0.0029,62.81,-72.13,3.14,153.37,-26.52,-129.89,203004,2016-03-24 17:00:03:776
7.0209,4.4823,-5.5197,6.7914,4.386,-5.5507,0.16,-0.1485,0.218,-0.0084,0.0189,-0.0193,62.88,-74.08,2.06,154.51,-26.58,-129.54,203104,2016-03-24 17:00:03:876
7.2338,4.3132,-5.4711,6.8048,4.3785,-5.5403,-0.0056,-0.0537,0.1211,0.0083,0.0107,0.0081,61.86,-73.38,1,155.17,-26.57,-129.26,203205,2016-03-24 17:00:03:977
6.9722,4.363,-5.4175,6.8502,4.3648,-5.4949,0.0424,-0.1134,0.1888,-0.0016,0.0187,-0.0121,61.53,-74.65,1.87,155.3,-26.44,-128.92,203305,2016-03-24 17:00:04:077
7.4113,4.4212,-5.7708,6.8712,4.3529,-5.4781,0.3422,-0.1176,-0.0775,-0.0174,0.0194,-0.0061,59.75,-74.2,0.24,156.7,-26.45,-128.71,203404,2016-03-24 17:00:04:176
7.2313,4.3257,-5.2881,6.8859,4.3303,-5.4775,0.1224,-0.1345,-0.1475,0.0062,0.0133,-4.0000E-04,59.7,-74.85,-0.04,157.01,-26.2,-128.5,203504,2016-03-24 17:00:04:276
7.2707,4.3625,-5.5245,6.9058,4.3046,-5.4728,0.246,-0.029,0.1346,0.0185,-0.0326,-0.0052,59.72,-74.67,1.22,156.55,-26.12,-128.42,203605,2016-03-24 17:00:04:377
7.5222,4.4856,-5.7883,6.9283,4.2965,-5.4505,0.3544,-0.0492,0.1008,0.0042,0.0177,-0.0327,60.2,-74.99,-0.37,157.06,-26.04,-128.4,203704,2016-03-24 17:00:04:476
7.6435,4.5231,-5.4571,6.9728,4.3139,-5.3796,0.1872,-0.0777,0.1387,-0.0073,0.0358,-0.0257,60.99,-72.38,1.94,155.35,-26.05,-127.99,203806,2016-03-24 17:00:04:578
7.0638,4.3628,-5.3008,6.9925,4.3095,-5.3575,0.1674,-0.0744,0.3002,0.0362,-0.0397,-0.0081,60.74,-73.84,1.93,155.98,-26.1,-127.65,203904,2016-03-24 17:00:04:676
7.1848,4.3007,-5.0552,6.9766,4.3074,-5.3799,-0.0626,0.0079,0.0938,-0.0117,0.039,-0.0207,61.66,-74.73,1.57,155.95,-26.06,-127.64,204004,2016-03-24 17:00:04:776
7.0088,4.4668,-5.5449,6.9865,4.3219,-5.3554,-0.0329,-0.131,0.3423,0.0211,-0.0329,-0.0541,60.85,-74.26,2.37,155.98,-26.06,-127.64,204104,2016-03-24 17:00:04:876
6.276,4.0882,-5.5146,6.9422,4.3108,-5.4215,-0.7244,-0.2693,0.1196,0.0217,-0.0073,0.0117,62.17,-73.88,0.39,156.73,-26.22,-127.65,204204,2016-03-24 17:00:04:976
6.3117,4.086,-5.5335,6.926,4.2846,-5.4628,-0.3429,-0.0672,-0.0668,0.0607,-0.0067,0.0414,60.45,-72.58,0.39,156.69,-25.91,-128.26,204304,2016-03-24 17:00:05:076
7.0681,4.6673,-6.3683,6.8981,4.2699,-5.5095,-0.0668,0.0057,0.1157,0.0035,-0.0154,0.0231,59.46,-71.98,1.43,156.11,-25.81,-128.48,204405,2016-03-24 17:00:05:177
6.7457,3.9962,-4.9367,6.9019,4.2809,-5.4962,0.3741,0.2787,-0.4534,0.0118,-0.0507,-0.0146,59.46,-73.03,1.87,155.76,-25.81,-128.61,204504,2016-03-24 17:00:05:276
7.5999,4.647,-5.3657,6.9064,4.2927,-5.4813,-0.2624,-0.1942,0.2533,5.0000E-04,0.0031,0.0173,61.45,-73.7,2.58,155.15,-26.09,-128.3,204604,2016-03-24 17:00:05:376
6.388,3.7608,-5.3353,6.9104,4.2659,-5.4972,0.5847,0.3123,-0.0264,0.0304,-0.0865,0.0453,61.86,-73.65,1.39,155.8,-25.96,-128.44,204705,2016-03-24 17:00:05:477
6.995,4.358,-5.9087,6.8565,4.2603,-5.5685,0.0695,-0.0953,-0.0303,0.0291,-0.1118,-0.0327,63.57,-72.1,0.83,154.48,-25.75,-129.08,204804,2016-03-24 17:00:05:576
7.2539,4.3936,-5.581,6.8647,4.26,-5.5587,0.4097,0.1068,0.0538,-0.0059,0.0112,0.0113,61.31,-69.73,1.96,154.33,-25.75,-129,204904,2016-03-24 17:00:05:676
7.2667,4.5288,-5.7776,6.8591,4.2769,-5.5526,0.3199,0.3164,-0.4439,-0.0018,0.0096,-0.0342,61.86,-70.77,1.93,154.31,-25.75,-129,205004,2016-03-24 17:00:05:776
7.0469,4.2166,-5.4491,6.8876,4.2781,-5.5162,0.2929,0.0277,0.1421,-0.0071,0.0046,0.0133,61.54,-70.81,0.33,155.49,-25.86,-128.69,205104,2016-03-24 17:00:05:876
7.0714,4.3793,-5.7132,6.8886,4.2894,-5.5063,0.4123,0.1766,0.1306,0.0076,-0.056,-0.0176,61.34,-71.52,0.9,155.51,-25.94,-128.64,205204,2016-03-24 17:00:05:976
7.5526,4.3814,-5.1587,6.9033,4.3094,-5.4721,0.2315,0.1166,0.1125,-0.0113,0.0022,-0.0153,60.39,-71.01,-0.44,156.06,-25.96,-128.62,205304,2016-03-24 17:00:06:076
7.1593,4.2038,-5.7651,6.8984,4.3177,-5.4717,0.2626,0.0775,0.166,0.0109,-0.0647,-0.0167,61.43,-70.37,1.12,155.18,-26.07,-128.4,205404,2016-03-24 17:00:06:176
6.556,4.178,-5.3699,6.8654,4.2996,-5.5272,-0.2165,-0.0769,0.0739,0.0144,-0.0282,-0.001,60.03,-70.05,0.5,155.72,-26,-128.84,205504,2016-03-24 17:00:06:276
6.5748,4.3112,-5.3433,6.8509,4.2949,-5.5488,-0.2005,-0.0845,0.0853,0.0138,-0.0273,0.006,60.73,-70.17,1.3,154.85,-25.97,-129.01,205604,2016-03-24 17:00:06:376
7.4124,4.3122,-5.6001,6.8603,4.2455,-5.5751,0.2626,-0.0431,-0.0218,0.0153,-0.075,-0.0087,62.37,-70.75,2.48,154.3,-25.83,-129.02,205705,2016-03-24 17:00:06:477
7.5234,4.5373,-5.9393,6.829,4.253,-5.6077,0.4095,0.2194,-0.2995,-0.0074,-0.0656,-0.017,62.27,-68.96,1.35,154.12,-25.7,-129.39,205804,2016-03-24 17:00:06:576
7.3222,4.5844,-6.7257,6.7729,4.2838,-5.6522,0.8057,0.3313,-0.2958,-0.0086,-0.0822,-0.0323,60.03,-72.5,2.37,155,-25.79,-129.59,205904,2016-03-24 17:00:06:676
7.2949,5.4385,-6.1504,6.7683,4.3293,-5.623,1.1516,0.3015,-0.8592,-0.0857,0.1285,-0.1038,59.2,-72.58,3.87,154.21,-26.2,-129.72,206005,2016-03-24 17:00:06:777
9.5016,5.9359,-6.437,6.7219,4.3832,-5.6369,0.8385,-0.1048,-0.3802,0.047,-0.2491,-0.0713,62.48,-73.68,3.66,153.84,-26.52,-129.43,206105,2016-03-24 17:00:06:877
5.8784,3.9203,-6.9114,6.739,4.4568,-5.5581,-1.1282,-0.3017,-0.6602,-0.1197,0.2921,-0.0596,61.37,-73.73,0.95,155.28,-26.55,-129.98,206204,2016-03-24 17:00:06:976
5.0371,3.9159,-4.9902,6.7876,4.446,-5.5074,0.1829,-0.0985,-0.5764,0.0412,-0.0374,-0.0282,61.87,-70.52,3.4,153.6,-27.03,-129.51,206304,2016-03-24 17:00:07:076
5.5234,3.5637,-4.4985,7.0177,4.3526,-5.2894,-2.382,-0.9894,0.8624,-0.0567,0.2653,0.1872,64.45,-71.29,3.95,153.92,-26.35,-127.01,206404,2016-03-24 17:00:07:176
6.0301,3.7092,-4.1575,7.0678,4.3012,-5.2647,-1.0616,-0.2987,1.4079,0.0889,0.1102,0.0746,62.83,-73.06,2.75,155.28,-26.01,-126.68,206504,2016-03-24 17:00:07:276
7.8603,4.4482,-4.778,7.0324,4.2569,-5.3474,0.5408,0.0086,0.8693,0.0312,-0.1231,0.031,62.65,-76.48,5.52,154.17,-25.73,-127.25,206604,2016-03-24 17:00:07:376
8.2536,4.8347,-6.0708,6.9587,4.2776,-5.4267,0.5315,0.5139,0.1727,0.0186,-0.1688,-0.0726,61.55,-78.64,5.9,155.07,-25.73,-127.25,206704,2016-03-24 17:00:07:476
8.185,4.92,-6.2098,6.8908,4.326,-5.4747,1.1266,0.6263,-0.6718,-0.0138,-0.0079,-0.0637,62.04,-74.45,3.73,154.32,-26.18,-128.47,206805,2016-03-24 17:00:07:577
7.9635,5.1133,-6.6851,6.8437,4.3548,-5.511,0.6908,0.3556,-0.6105,-0.0148,-0.081,-0.0647,62.89,-75.8,3.88,154.53,-26.18,-128.47,206904,2016-03-24 17:00:07:676
6.9014,4.4216,-6.0389,6.8186,4.4028,-5.5039,0.8584,0.507,-0.4306,-0.033,0.0224,-0.0315,63.1,-74.28,2.76,154.3,-26.52,-129.01,207004,2016-03-24 17:00:07:776
6.9637,4.5523,-5.5461,6.8164,4.4277,-5.4865,0.0755,-0.0844,-0.3804,-0.0091,0.0364,-0.0496,63.29,-74.66,3.13,154.58,-26.68,-128.91,207104,2016-03-24 17:00:07:876
7.3726,4.5741,-5.3512,6.8341,4.473,-5.4275,-0.0295,-0.0382,0.0827,-0.0486,0.0254,0.0044,64.36,-74.27,4.12,153.88,-27.14,-128.46,207204,2016-03-24 17:00:07:976
7.3967,4.6271,-5.5816,6.8383,4.4832,-5.4138,-0.3585,-0.217,0.4369,-0.0062,0.023,-0.0164,64.16,-75.02,4.16,154.16,-27.2,-128.37,207305,2016-03-24 17:00:08:077
6.5584,4.2882,-5.4106,6.8244,4.4689,-5.4431,-0.0659,0.0136,0.1355,0.0094,-0.02,0.0253,64.57,-73.74,3.67,153.59,-27.11,-128.58,207405,2016-03-24 17:00:08:177
7.0479,4.5679,-5.4568,6.8462,4.4378,-5.4411,0.068,-0.0409,-0.0657,-0.0112,0.0102,-0.0119,63.1,-74.12,3.73,154.1,-26.91,-128.48,207504,2016-03-24 17:00:08:276
6.7336,4.3733,-5.2021,6.8527,4.4425,-5.4291,-0.1167,0.0024,-0.0552,-0.0304,0.0357,0.0323,63.67,-74.03,3.08,154.35,-26.91,-128.48,207604,2016-03-24 17:00:08:376
6.8214,4.6254,-5.7378,6.8534,4.4102,-5.4544,-0.1135,-0.0969,0.1085,0.0195,-0.0423,0.0065,61.9,-74,3.88,154.42,-26.83,-128.32,207704,2016-03-24 17:00:08:476
6.5536,4.3117,-5.3751,6.8562,4.4235,-5.4402,-0.0171,0.1546,0.0227,-0.0189,0.0368,0.0211,62.03,-74.42,3.82,154.36,-26.81,-128.43,207804,2016-03-24 17:00:08:576
7.0995,4.5427,-5.8133,6.8371,4.4063,-5.4781,-0.035,-0.1542,0.036,0.0152,-0.0745,-0.011,63.05,-74.23,4.66,153.66,-26.8,-128.38,207904,2016-03-24 17:00:08:676
7.1703,4.6441,-5.8582,6.8163,4.4039,-5.5059,0.1024,0.1258,-0.2795,-0.0073,0.0027,0.0148,62.91,-75.13,3.92,154.21,-26.7,-128.7,208004,2016-03-24 17:00:08:776
6.9125,4.5608,-5.673,6.8074,4.3926,-5.5258,-0.0728,-0.0804,-0.2798,-0.0076,-0.0109,-0.007,62.85,-72.97,3.79,153.65,-26.66,-128.87,208104,2016-03-24 17:00:08:876
7.0874,4.3719,-5.7298,6.8024,4.3926,-5.5319,0.2506,0.0968,-0.1614,-0.0251,-0.041,0.0103,64.18,-73.21,3.42,153.77,-26.61,-129.12,208204,2016-03-24 17:00:08:976
7.8035,4.5475,-5.8331,6.8053,4.3764,-5.5413,0.8373,0.1268,-0.6821,-0.0041,-0.0436,-0.0243,62.41,-73.39,3.56,153.72,-26.57,-129.21,208304,2016-03-24 17:00:09:076
7.6402,4.6663,-5.8774,6.8045,4.4021,-5.5219,0.0309,0.0475,-0.3687,-0.0549,0.079,-0.0629,64.07,-73.4,2.9,153.8,-26.67,-129.06,208404,2016-03-24 17:00:09:176
6.1132,4.0155,-5.4241,6.847,4.3741,-5.4915,-0.0741,-0.0021,-0.2872,0.0041,0.0066,-0.0067,61.96,-74.56,3.33,154.91,-26.49,-128.73,208505,2016-03-24 17:00:09:277
6.3723,3.9834,-4.7886,6.9096,4.3755,-5.4114,-0.7784,-0.5285,0.1814,-0.024,0.1778,0.0445,63.15,-74.07,2.54,154.44,-26.49,-128.73,208605,2016-03-24 17:00:09:377
7.13,3.9349,-4.8672,6.9614,4.342,-5.3717,-0.5583,-0.5623,0.6397,0.0044,-8.0000E-04,0.0611,63.59,-73.88,4.49,154.27,-26.28,-127.66,208704,2016-03-24 17:00:09:476
6.7944,3.9678,-5.4027,6.9665,4.345,-5.3628,-0.4959,-0.5203,0.2189,-0.0155,0.0307,-0.0261,62.59,-74.75,4.82,154.28,-26.3,-127.59,208804,2016-03-24 17:00:09:576
7.9177,4.4189,-5.9237,6.9309,4.326,-5.4239,0.3979,-0.1359,0.1839,0.0479,-0.096,-0.014,62.52,-74.07,3.45,155.03,-26.3,-127.59,208904,2016-03-24 17:00:09:676
6.5945,3.436,-5.2855,6.8871,4.3038,-5.4968,-0.3255,-0.7856,0.3094,0.0406,-0.0254,-0.0381,61.57,-74.31,5.02,153.76,-26.03,-128.59,209004,2016-03-24 17:00:09:776
7.6525,4.1935,-5.7583,6.8445,4.3025,-5.5508,-0.2451,-0.6207,0.1717,0.0448,-0.0734,-0.0582,62.46,-72.71,4.81,153.29,-26.02,-129.04,209104,2016-03-24 17:00:09:876
7.8164,4.0067,-6.0247,6.8253,4.2889,-5.5849,0.3723,-0.6379,-0.0966,-0.0174,-0.0137,-0.0061,63.38,-73.54,3.9,153.66,-25.94,-129.25,209204,2016-03-24 17:00:09:976
8.023,4.3118,-6.6648,6.7958,4.3022,-5.6105,0.8017,-0.4272,-0.3188,0.0262,-0.0402,-0.0754,63.9,-73.03,4.9,152.55,-26.02,-129.54,209304,2016-03-24 17:00:10:076
7.871,4.0238,-5.5829,6.8304,4.3339,-5.5438,0.2461,-0.5081,-0.5387,-0.0579,0.115,-0.0238,62.92,-73.19,3.94,153.29,-26.09,-129.52,209404,2016-03-24 17:00:10:176
6.6469,3.4024,-5.3317,6.8769,4.3366,-5.4839,0.9832,-0.3133,-0.148,-0.0144,0.1115,-0.0068,63.09,-72.45,4.08,153.55,-26.24,-128.57,209504,2016-03-24 17:00:10:276
7.3153,3.871,-4.8623,6.918,4.3176,-5.4469,0.741,-0.3985,0.4316,-0.0551,0.0192,0.0201,63.2,-73.39,4.71,153.36,-26.11,-128.44,209604,2016-03-24 17:00:10:376
7.14,3.4803,-5.469,6.9383,4.3051,-5.4311,-0.3865,-0.8995,0.3911,-0.0145,0.0153,0.0345,63.95,-73.76,5.67,153.08,-26.04,-128.05,209704,2016-03-24 17:00:10:476
7.1589,3.6491,-5.513,6.9401,4.2753,-5.4523,0.0018,-0.4902,0.2477,0.0077,-0.0252,0.0074,62.84,-73.62,4.16,154.27,-25.9,-128.08,209804,2016-03-24 17:00:10:576
7.5885,3.8734,-5.6365,6.9424,4.2544,-5.4657,0.0534,-0.7597,0.0743,0.0079,-0.0177,0.0187,62.71,-73.91,5.07,153.7,-25.71,-128.21,209904,2016-03-24 17:00:10:676
7.5614,3.8322,-5.7815,6.9551,4.1964,-5.4943,0.2367,-0.4183,0.1561,0.0157,-0.0583,-0.0076,63.59,-72.82,4.42,153.66,-25.63,-128.3,210004,2016-03-24 17:00:10:776
7.3105,3.8543,-5.795,6.9747,4.1421,-5.5107,0.4074,-0.4246,-0.053,-0.0027,-0.0236,-0.0198,64.12,-73.67,4.38,153.86,-24.98,-128.31,210105,2016-03-24 17:00:10:877
7.2641,4.0027,-5.7293,6.9868,4.0529,-5.5614,0.504,-0.1772,-0.125,-0.0347,0.0058,-0.0286,63.05,-74.73,5.24,153.72,-24.41,-128.52,210204,2016-03-24 17:00:10:976
7.9736,4.1116,-6.6442,6.9906,3.9861,-5.6048,-0.6134,-0.6871,0.0424,0.1141,-0.1879,-0.0117,63.37,-73.06,5.89,152.63,-23.98,-128.72,210304,2016-03-24 17:00:11:076
6.4072,3.5927,-5.491,6.9865,3.9598,-5.6284,0.4948,0.0326,0.4548,0.1141,-0.1879,-0.0117,63.37,-73.06,5.89,152.63,-23.98,-128.72,210405,2016-03-24 17:00:11:177
7.2767,3.5011,-5.5023,7.0199,3.942,-5.5993,-0.7442,-0.8266,0.1555,-0.0775,0.0768,0.0947,63.57,-73.56,5.06,153.03,-23.81,-128.86,210505,2016-03-24 17:00:11:277
7.0772,3.3827,-5.4624,6.9992,3.9365,-5.629,0.1325,-0.1926,0.1937,0.0216,-0.067,-0.046,63.42,-74.34,5.93,152.81,-23.67,-128.81,210605,2016-03-24 17:00:11:377
7.1223,3.5272,-5.6989,6.9955,3.8982,-5.6601,0.3319,-0.4171,0.2221,0.0167,-0.0336,0.0261,61.93,-74.08,5.08,153.52,-23.49,-128.83,210705,2016-03-24 17:00:11:477
7.5913,3.6005,-6.2891,6.9936,3.9118,-5.6532,0.0553,-0.4575,0.079,-0.0048,-0.0401,-0.0316,61.48,-74.1,6.16,153.22,-23.42,-128.98,210804,2016-03-24 17:00:11:576
7.7155,3.8273,-6.122,6.9955,3.9795,-5.6033,0.7227,-0.0961,-0.1787,-0.0834,-0.0027,-0.0404,63.11,-74.64,4.96,153.61,-23.94,-128.69,210904,2016-03-24 17:00:11:676
6.7566,3.515,-5.556,7.0265,3.9686,-5.5721,0.2489,-0.2921,-0.1168,-1.0000E-04,0.063,-0.0602,61.83,-74.34,5.85,153.13,-23.94,-128.69,211004,2016-03-24 17:00:11:776
7.3503,3.9856,-5.2836,7.0596,4.0358,-5.4813,0.0555,-0.3587,0.2998,0.0109,0.1056,-0.0928,61.1,-74.76,5.7,153.94,-24.09,-128.06,211105,2016-03-24 17:00:11:877
6.2075,3.5024,-5.5383,7.0564,4.0806,-5.4523,-1.111,-1.1961,-0.0332,0.0289,0.0841,-0.1305,62.49,-72.59,3.09,154.82,-24.3,-127.83,211205,2016-03-24 17:00:11:977
7.4576,4.1156,-5.3022,6.9655,4.2329,-5.4529,0.1762,0.2649,0.1729,-0.1778,-0.1772,-0.0097,64.5,-69.43,0.58,154.53,-25.15,-127.65,211305,2016-03-24 17:00:12:077
7.3253,4.3227,-5.5197,6.912,4.2322,-5.5211,0.4167,-0.2577,0.0203,-0.1022,-0.2148,0.0658,65.41,-70.1,-0.2,154.82,-25.57,-128.06,211405,2016-03-24 17:00:12:177
7.0415,3.9138,-6.1606,6.8773,4.1774,-5.6056,0.0924,-0.1447,-0.1183,0.1513,0.0304,-0.0599,64.35,-68.8,-1.21,154.79,-25.42,-129.02,211504,2016-03-24 17:00:12:276
7.1586,3.9739,-5.7112,6.8922,4.1276,-5.6242,0.2763,-0.1787,-0.0846,0.0228,0.0296,0.014,63.02,-64.9,-0.27,153.35,-25.02,-129.3,211604,2016-03-24 17:00:12:376
7.1137,3.9389,-5.7624,6.9143,4.0961,-5.6201,-0.0393,-0.1281,0.1057,0.0569,0.0257,0.0121,63.52,-65.68,-0.27,153.43,-24.69,-129.1,211704,2016-03-24 17:00:12:476
6.9429,3.8943,-5.4538,6.9533,4.0375,-5.6143,0.3175,-0.04,-0.0405,0.009,0.0513,9.0000E-04,64.02,-65.7,0.08,153.37,-24.45,-129.17,211804,2016-03-24 17:00:12:576
7.3242,4.0625,-5.7125,6.972,4.02,-5.6037,-0.2951,-0.199,0.1456,0.0278,0.0441,0.0122,63.06,-64.78,0.75,152.99,-24.31,-128.92,211904,2016-03-24 17:00:12:676
7.1138,3.8275,-5.2989,7.0337,3.9893,-5.5483,-0.0247,-0.254,0.2892,-0.0348,-0.0114,0.0094,64.25,-67.62,-1.1,154.74,-24.07,-128.49,212005,2016-03-24 17:00:12:777
6.9851,3.9122,-5.7397,7.0302,3.9792,-5.5599,-0.1476,-0.2042,0.1323,0.0279,-0.0186,-0.0148,63.97,-66.1,1.11,153.28,-23.94,-128.34,212104,2016-03-24 17:00:12:876
7.0918,3.8037,-5.4508,7.062,3.9424,-5.5458,-0.0283,-0.1634,-0.0439,-0.0315,0.0366,0.0258,62.96,-66.1,-0.49,154.08,-23.85,-128.31,212205,2016-03-24 17:00:12:977
6.9547,3.7205,-5.4376,7.0801,3.9078,-5.5472,-0.5889,-0.4908,0.6517,0.0918,-0.0425,0.0181,64.58,-65.91,-0.76,154.15,-23.7,-128.14,212304,2016-03-24 17:00:13:076
6.574,3.6246,-5.6894,7.0869,3.876,-5.5608,0.8982,0.2402,-0.1157,0.0206,0.1587,-0.0232,62.73,-66.97,-1.08,154.79,-23.31,-128.33,212404,2016-03-24 17:00:13:176
7.3944,4.0409,-5.7329,7.1148,3.8597,-5.5365,-0.699,-0.4141,0.2205,0.0206,0.1587,-0.0232,62.73,-66.97,-1.08,154.79,-23.31,-128.33,212504,2016-03-24 17:00:13:276
6.0391,3.2555,-5.2687,7.119,3.842,-5.5434,1.4492,0.475,0.3335,-0.082,-0.1337,0.0596,63.19,-67.05,-1.23,154.91,-23.08,-128.09,212604,2016-03-24 17:00:13:376
7.59,4.0101,-5.0878,7.1352,3.8218,-5.5366,-0.9277,-0.5121,0.2495,0.0129,0.1162,0.0158,62.42,-66.26,-0.06,154.51,-23.06,-127.91,212704,2016-03-24 17:00:13:476
7.3909,3.8301,-5.5646,7.1071,3.8128,-5.5787,-0.0125,-0.0968,0.1103,-0.0365,-0.0728,0.0091,63.83,-67.85,-0.59,154.93,-22.91,-127.98,212804,2016-03-24 17:00:13:576
6.8023,3.6518,-5.0002,7.0956,3.8023,-5.6004,-0.2874,-0.1255,0.482,0.0036,-0.0221,-0.0055,62.44,-67.53,-0.44,154.78,-22.81,-128.28,212904,2016-03-24 17:00:13:676
7.2593,3.8616,-5.9108,7.0885,3.7866,-5.6201,-0.0527,0.0342,0.0339,0.0392,-0.0434,-0.0055,62.83,-67.06,0.93,153.66,-22.71,-128.41,213004,2016-03-24 17:00:13:776
7.3778,3.7965,-5.3021,7.1409,3.762,-5.5701,0.2668,0.0195,0.2516,-0.019,0.0148,0.0323,62.81,-67.6,1.47,153.97,-22.6,-128.3,213104,2016-03-24 17:00:13:876
7.4097,3.991,-6.1156,7.1258,3.7603,-5.5904,0.0033,-0.0856,0.1899,-0.0034,-0.0577,-4.0000E-04,62.54,-68.11,1.95,153.55,-22.55,-128.12,213204,2016-03-24 17:00:13:976
7.767,4.1401,-5.8157,7.1036,3.7744,-5.6092,0.5917,0.2585,-0.4245,-0.0284,0.033,-0.0037,63.63,-67.84,0.86,153.59,-22.55,-128.49,213305,2016-03-24 17:00:14:077
6.9719,3.6686,-5.696,7.1146,3.7878,-5.5862,0.2713,0.1109,0.2042,-0.0383,0.0297,7.0000E-04,64.1,-67.57,1.92,153.29,-22.72,-128.14,213405,2016-03-24 17:00:14:177
7.5797,3.9418,-5.6472,7.1537,3.7627,-5.5531,0.3664,0.1311,0.0985,0.0192,0.0149,0.023,63.3,-69.22,-0.2,154.99,-22.56,-127.82,213505,2016-03-24 17:00:14:277
6.924,3.6259,-5.4647,7.1907,3.7391,-5.5212,0.0425,-0.1744,0.469,0.0014,-0.0127,0.0329,63.74,-69.12,0.75,154.22,-22.56,-127.82,213604,2016-03-24 17:00:14:376
7.2143,3.8406,-5.7896,7.1529,3.752,-5.5614,-0.105,0.0635,-0.2382,0.0173,0.0185,-0.028,64.06,-68.04,1.33,153.93,-22.49,-127.87,213704,2016-03-24 17:00:14:476
7.2963,3.6512,-5.2411,7.1849,3.7545,-5.5182,0.3351,0.1446,0.0754,-0.0265,0.0209,0.0302,63.04,-69.27,1.08,154.45,-22.49,-127.87,213804,2016-03-24 17:00:14:576
7.2348,3.9671,-5.4869,7.1969,3.7314,-5.5183,-0.0523,-0.0629,0.1622,0.0543,-0.0421,-0.0272,63.22,-69.23,0.49,155.17,-22.36,-127.48,213904,2016-03-24 17:00:14:676
7.0852,3.6444,-5.493,7.1883,3.7385,-5.5247,-0.0531,0.1165,0.0412,0.032,0.0155,-0.0033,62.44,-68.59,1.78,154.4,-22.36,-127.48,214004,2016-03-24 17:00:14:776
7.0411,3.6395,-5.5858,7.1772,3.7127,-5.5565,-0.0064,0.0715,0.0231,0.0234,-0.0158,0.0199,63.03,-69.13,1.1,154.54,-22.31,-127.67,214104,2016-03-24 17:00:14:876
7.2356,3.6999,-5.764,7.1703,3.7068,-5.5692,-0.1292,-3.0000E-04,-0.0185,-0.0039,-0.0033,0.0143,64.49,-68.24,0.79,153.98,-22.25,-127.75,214204,2016-03-24 17:00:14:976
