ACCELEROMETER X (m/s²),ACCELEROMETER Y (m/s²),ACCELEROMETER Z (m/s²),GRAVITY X (m/s²),GRAVITY Y (m/s²),GRAVITY Z (m/s²),LINEAR ACCELERATION X (m/s²),LINEAR ACCELERATION Y (m/s²),LINEAR ACCELERATION Z (m/s²),GYROSCOPE X (rad/s),GYROSCOPE Y (rad/s),GYROSCOPE Z (rad/s),MAGNETIC FIELD X (μT),MAGNETIC FIELD Y (μT),MAGNETIC FIELD Z (μT),ORIENTATION Z (azimuth °),ORIENTATION X (pitch °),ORIENTATION Y (roll °),Time since start in ms ,YYYY-MO-DD HH-MI-SS_SSS
1.8983,-10.7512,-1.6439,2.1965,-9.5505,0.3659,0.6157,-1.986,-1.8199,-1.2162,0.3552,-1.3,3.37,32.32,-6.15,325.09,76.88,-80.54,66706,2016-03-24 12:39:00:080
4.4613,-10.5378,0.7696,3.5043,-9.159,-0.0451,0.5976,-3.016,1.2096,-1.1315,0.4427,-2.1867,0.5,32.36,-4.21,342.2,69.06,-90.74,66806,2016-03-24 12:39:00:180
3.5567,-8.7626,-2.5549,5.8111,-7.8044,-1.2221,-1.6638,-1.2961,-0.5534,-0.9431,-0.7421,-2.2264,-6,32.06,-0.03,356.92,61,-95.29,66906,2016-03-24 12:39:00:280
2.6817,-5.4414,-1.8054,6.4169,-7.0279,-2.3669,-3.2237,0.0202,0.1152,-1.2313,-1.2343,-1.7395,-9.12,31.57,2.33,355.51,45.78,-110.25,67006,2016-03-24 12:39:00:380
2.0345,-2.9326,-1.8673,6.0605,-6.6226,-3.9474,-3.8476,3.5688,2.3682,0.0167,-0.9565,0.1339,-12.31,28.65,9.09,9.35,41.88,-119.51,67106,2016-03-24 12:39:00:480
3.0628,-10.1629,-4.5283,5.7973,-7.2566,-3.1468,-1.6846,2.1463,1.2202,1.1655,0.7177,0.9465,-11.96,28.29,10.65,28.89,47.73,-118.49,67206,2016-03-24 12:39:00:580
1.4792,-9.5532,-1.6704,4.6422,-8.5715,-1.0724,5.0772,-2.7299,-2.8631,1.1311,0.7396,1.4528,-6.95,33.13,4.08,14.04,60.93,-103.01,67306,2016-03-24 12:39:00:680
2.9917,-7.5443,-0.9712,3.7448,-9.038,-0.6797,-1.7879,-0.0132,-1.2329,0.6294,0.0589,1.5112,-3.36,33.96,1.61,8.03,67.16,-100.29,67406,2016-03-24 12:39:00:780
5.4611,-8.2389,-1.2805,2.484,-9.4868,-0.026,1.8353,1.02,-1.1727,0.6519,-0.3585,0.544,0.04,35.01,-0.18,0,75.33,-90.6,67506,2016-03-24 12:39:00:880
2.0765,-8.0938,-1.3813,2.3646,-9.5111,0.3449,-0.7682,0.958,-1.0748,0.715,-0.2125,0.2056,0.87,35.47,-1.45,353.08,75.9,-81.7,67606,2016-03-24 12:39:00:980
1.8862,-8.6848,-1.0069,1.7689,-9.5797,1.1268,0.4412,0.6196,-1.9577,0.6756,-0.3369,0.7374,4.56,34.47,-6.35,325.17,76.59,-70.53,67706,2016-03-24 12:39:01:080
3.9735,-13.0145,0.4131,1.3204,-9.6202,1.3709,1.1586,-0.9042,-2.609,0.3839,0.002,0.7439,6.8,33.34,-6.87,302.16,78.81,-43.93,67808,2016-03-24 12:39:01:182
1.0939,-12.2414,0.405,0.7174,-9.6205,1.7612,1.3902,-3.4073,-1.0818,0.3965,-0.6939,0.5134,9.95,32.67,-8.5,286.22,79.22,-31.87,67906,2016-03-24 12:39:01:280
4.0576,-8.7859,-1.4068,0.9815,-9.7044,1.0154,2.3834,0.3543,-1.8867,-1.2703,-1.2596,-0.759,9.91,32.75,-10.07,287.71,81.72,-44.03,68007,2016-03-24 12:39:01:381
2.0823,-8.7709,1.547,1.6151,-9.6727,0.0228,2.0544,0.7855,-0.3057,-1.3746,-1.4901,-1.0505,7.88,32.63,-10.61,319.85,80.52,-89.19,68105,2016-03-24 12:39:01:479
3.6323,-7.2294,1.5361,2.7693,-9.3166,-1.3047,-0.6144,1.1024,3.397,-0.8679,-1.6091,-1.043,4.57,36.51,-10.81,314.48,80.52,-89.19,68205,2016-03-24 12:39:01:579
4.5233,-8.6245,1.6739,3.4963,-9.0505,-1.4261,0.3212,1.3533,2.3863,0.0804,-1.2056,-1.2384,2.2,38.1,-9.66,336.78,67.35,-112.19,68306,2016-03-24 12:39:01:680
2.3322,-8.8688,1.1663,4.5781,-8.5657,-1.3565,-1.924,-0.4122,2.6363,1.1379,-2.155,-1.2853,-8.99,37.71,-11.35,313.75,63.19,-109.15,68406,2016-03-24 12:39:01:780
2.0512,-8.8448,-0.2677,4.6604,-8.5467,-1.1857,-2.4928,-0.5165,1.4158,1.6035,-2.4153,-0.6619,-16.52,33.52,-11.56,287.96,60.86,-106.5,68506,2016-03-24 12:39:01:880
3.9451,-7.886,-0.0807,4.002,-8.8891,-1.0669,-0.4799,-0.0815,-0.7567,1.5082,-2.7101,0.5525,-22.21,28.23,-8.53,249.6,65.02,-104.93,68606,2016-03-24 12:39:01:980
-2.2933,-9.0485,0.428,3.6719,-9.019,-1.1603,-1.7618,0.7696,1.0774,1.0126,-3.4328,0.3251,-22.6,27.49,-4.33,231.43,65.02,-104.93,68706,2016-03-24 12:39:02:080
5.9598,-7.4739,-1.4578,3.0503,-9.2595,-1.0623,0.9348,-3.3473,0.7151,0.5377,-1.6588,0.3198,-22.48,27.91,2.76,201.24,70.77,-109.2,68806,2016-03-24 12:39:02:180
2.3824,-9.304,3.5886,2.8786,-9.3191,-1.0194,2.4464,1.1296,0.1903,0.7529,-2.0928,0.2621,-22.73,28.42,5.86,188.34,71.86,-109.5,68905,2016-03-24 12:39:02:279
3.0013,-9.047,1.6509,2.6186,-9.4495,-0.1445,-1.0031,-0.1676,-0.6895,1.3568,-1.7742,0.2059,-20.21,28.33,9.21,159.37,73.35,-101.84,69005,2016-03-24 12:39:02:379
1.5224,-9.7225,0.8396,2.5872,-9.4592,0.0229,0.4354,0.2,0.3428,0.7516,-1.8533,0.1047,-18.55,29.01,10.41,136.16,74.7,-89.49,69105,2016-03-24 12:39:02:479
1.9019,-9.3074,1.4155,2.4319,-9.4917,0.4043,-0.6428,-0.0727,0.5863,0.6778,-1.6722,0.221,-16.54,29.12,13.09,113.78,75.44,-80.56,69205,2016-03-24 12:39:02:579
1.8596,-9.4596,1.0259,2.2307,-9.5285,0.6335,-0.3321,-0.1464,0.4418,0.3951,-1.0556,0.2485,-12.96,30.15,16.47,92.45,76.32,-74.15,69305,2016-03-24 12:39:02:679
2.3192,-9.5648,0.7617,2.0955,-9.5527,0.7243,-0.1166,-4.0000E-04,0.5947,0.2678,-0.6404,0.2679,-11.33,29.75,16.55,84,76.93,-70.93,69405,2016-03-24 12:39:02:779
2.7881,-9.0342,-0.1195,1.8867,-9.603,0.6267,0.9216,0.1588,-0.6118,-0.1987,-0.2704,0.1186,-10.24,30.08,17.39,83.97,78.3,-71.62,69506,2016-03-24 12:39:02:880
3.415,-10.015,-2.4418,1.9694,-9.605,0.1918,1.4784,-0.6555,-0.5248,-0.6701,-0.43,-0.1236,-8.79,30.23,18.5,80.66,78.3,-71.62,69606,2016-03-24 12:39:02:980
3.6197,-9.4821,-2.1674,2.9552,-9.1599,-1.8796,0.6709,-0.7573,-0.6963,-1.9566,0.072,-1.3323,-8.21,25.79,23.17,119.5,69.08,-122.46,69705,2016-03-24 12:39:03:079
4.6317,-9.9963,-0.2375,3.8661,-8.6122,-2.6558,-0.8495,-0.6145,1.3433,-1.2773,0.2868,-1.4613,-7.73,22.24,25.66,123.05,69.08,-122.46,69806,2016-03-24 12:39:03:180
2.7383,-8.3918,-3.0784,5.1803,-7.8162,-2.8709,-2.9062,-0.1041,-0.3492,0.1983,-0.535,-0.9594,-7.28,17.47,26.1,103.54,52.85,-119,69906,2016-03-24 12:39:03:280
2.8833,-5.384,-2.3764,5.3306,-7.6527,-3.0317,-2.7086,1.1545,-0.407,0.075,-0.5493,-0.3879,-6.72,17.3,25.74,103.54,52.85,-119,70005,2016-03-24 12:39:03:379
2.6441,-5.3004,-2.0992,5.0554,-7.9032,-2.8552,-2.2226,2.3183,0.7252,0.4421,0.2112,0.7152,-3.94,17.63,26.39,94.67,51.45,-120.05,70106,2016-03-24 12:39:03:480
4.5594,-7.3961,-2.4544,4.6079,-8.2916,-2.4874,-0.9605,2.3627,0.5847,0.7251,0.0879,1.0478,-4.66,19.72,25.32,98.92,57.73,-118.36,70206,2016-03-24 12:39:03:580
3.6313,-7.2451,-2.9089,3.7315,-8.9104,-1.6887,0.451,1.6934,-0.8727,0.7996,-0.5282,0.8046,-2.18,20,26.08,97.18,62.03,-117.51,70306,2016-03-24 12:39:03:680
3.773,-16.7238,-2.5799,3.5664,-9.0259,-1.4084,0.3155,-0.1434,-4.093,1.071,-0.1844,0.3467,-1.25,21.93,25.59,93.39,65.31,-114.35,70406,2016-03-24 12:39:03:780
6.3448,-13.5017,-2.549,3.448,-9.0701,-1.4191,1.4454,-4.7033,1.0809,0.0231,-0.4964,-0.0408,1.81,27.32,22.4,78.66,67.65,-112.37,70506,2016-03-24 12:39:03:880
1.8109,-9.0776,-0.6309,3.1581,-9.2516,-0.7779,-2.164,0.2804,1.2363,0.6826,0.1887,0.2357,3.31,30.06,21.83,72.51,68.58,-109.2,70611,2016-03-24 12:39:03:985
4.8409,-8.1484,-2.0875,2.9364,-9.3389,-0.5772,1.8364,0.8317,-1.1884,0.3405,0.2808,0.476,3.9,30.06,20.85,67.42,70.63,-103.84,70706,2016-03-24 12:39:04:080
2.3595,-7.7143,-1.9085,2.8518,-9.3527,-0.7512,0.2232,1.5143,-1.2541,-0.0943,-0.2454,0.0133,5.68,30.33,17.72,61.73,72.5,-104.76,70805,2016-03-24 12:39:04:179
4.84,-7.605,-0.4978,2.9892,-9.2646,-1.1843,0.9915,0.6175,1.0331,-0.6531,-0.2666,-0.141,5.8,31.26,17.08,62.15,70.86,-111.61,70905,2016-03-24 12:39:04:279
2.9191,-4.9923,-1.4979,4.0997,-8.4108,-2.9361,-1.2478,2.0375,1.208,-1.783,-0.0035,-1.1133,3.86,30.29,17.69,61.46,59.06,-125.61,71005,2016-03-24 12:39:04:379
4.2869,-16.9408,-2.0543,4.9454,-7.5202,-3.8935,0.9346,-0.9278,1.9596,-1.9176,-0.1874,-1.5771,1.96,28.29,19.65,71.58,59.06,-125.61,71105,2016-03-24 12:39:04:479
2.0437,-8.3809,-3.8037,5.1519,-7.2003,-4.2172,-1.9783,-0.6991,1.9975,0.4623,-0.3995,-0.0014,-1.96,23.64,22.26,72.64,47.24,-129.3,71205,2016-03-24 12:39:04:579
3.8233,-6.7149,-2.9201,4.8073,-7.7695,-3.563,-2.351,-0.5893,-0.5536,1.1228,0.3272,0.7861,-2.04,24.57,21.41,75.43,52.4,-126.54,71305,2016-03-24 12:39:04:679
3.9814,-6.9506,-3.7136,3.7635,-8.7807,-2.2149,0.2803,1.323,-0.1239,0.97,0.335,0.9797,-1.24,28.57,18.59,70.45,58.56,-123.74,71405,2016-03-24 12:39:04:779
4.2134,-7.6842,-2.7035,3.5711,-8.9489,-1.8261,0.0981,1.6492,-1.4431,0.662,0.0573,0.3414,-0.33,30.59,18.1,72.02,65.86,-117.08,71505,2016-03-24 12:39:04:879
4.632,-15.4165,-3.2832,3.6096,-9.0475,-1.1335,1.1844,-1.7126,-0.2004,0.8223,0.0177,-0.0036,0.86,31.49,13.97,58.63,66.43,-113.8,71605,2016-03-24 12:39:04:979
3.6533,-10.012,3.7702,3.4696,-9.1376,-0.7984,0.2431,-5.9383,-0.5764,0.6087,-0.4582,0.1902,1.01,32.31,13.04,52.83,67.31,-107.43,71706,2016-03-24 12:39:05:080
2.4257,-8.5253,-0.2533,3.277,-9.2281,-0.5231,0.054,0.6988,0.1792,0.1452,0.1237,0.1181,1.36,32.98,9.43,40,69.68,-101.11,71806,2016-03-24 12:39:05:180
2.7515,-7.854,-0.9344,3.1223,-9.2868,-0.4203,-0.6082,0.269,0.2534,0.1451,0.0731,0.3166,1.46,33.47,8.31,37.44,71.26,-97.67,71906,2016-03-24 12:39:05:280
2.922,-7.4652,-0.4772,2.9235,-9.3292,-0.7677,1.8945,2.6275,-1.3394,-0.5034,0.1374,-0.192,1.31,32.51,9.1,45.13,72.05,-104.71,72006,2016-03-24 12:39:05:380
10.4758,-5.0928,-5.6651,4.4002,-8.5512,-1.9196,1.0425,0.3458,-0.0178,-2.6619,0.0714,-2.6344,0.9,32.24,10.44,46.57,69.52,-107.19,72106,2016-03-24 12:39:05:480
3.2931,-13.0033,0.5601,5.4226,-7.3854,-3.4959,3.0119,-0.9849,-1.5592,-2.0923,-1.6746,-1.7172,-3.4,30.1,12.83,54.1,60.69,-113.57,72205,2016-03-24 12:39:05:579
2.5466,-7.8394,-2.5896,5.4428,-7.1,-4.0171,-2.7331,-0.636,1.4918,1.2865,0.6288,0.6459,-7.42,26.68,14.94,39.49,44.2,-128.19,72305,2016-03-24 12:39:05:679
3.7067,-6.4664,-2.9462,4.9719,-7.814,-3.2237,-1.4369,0.9175,-0.2408,1.3541,0.2036,1.6574,-5.55,28.87,14.41,48.74,52.83,-122.96,72405,2016-03-24 12:39:05:779
3.4597,-7.9692,-3.3018,3.7003,-8.8147,-2.186,0.077,0.1643,-0.6975,0.8643,-0.2132,1.1648,-3.44,31.9,11.38,49.97,64.01,-120.57,72505,2016-03-24 12:39:05:879
3.6688,-8.1194,-2.7054,3.5104,-8.9542,-1.9159,0.7667,1.6088,-1.4133,0.8953,-0.21,0.5798,-1.49,30.81,10.55,49.03,64.01,-120.57,72606,2016-03-24 12:39:05:980
5.8952,-12.1316,0.3881,3.5284,-9.0796,-1.1322,-0.2015,0.7796,-2.3832,0.607,0.5365,0.021,-0.76,32.32,8.48,39.26,67.8,-107.79,72706,2016-03-24 12:39:06:080
8.0863,-19.1706,-4.7904,3.4503,-9.1397,-0.8557,1.5517,-5.8912,-0.23,0.9862,-0.2902,0.0874,-0.66,32.36,6.58,34.57,67.8,-107.79,72806,2016-03-24 12:39:06:180
1.4066,-7.7222,1.1437,3.2158,-9.2422,-0.6404,1.2595,-4.1168,-2.5078,0.2329,0.0962,0.1881,-0.48,30.78,5.59,31.08,69.38,-102.21,72906,2016-03-24 12:39:06:280
2.8015,-7.5468,-1.0651,3.0289,-9.3102,-0.5616,-1.3448,1.2879,1.4935,0.099,0.0177,0.344,0.09,31,3.3,17.74,71.69,-100.5,73006,2016-03-24 12:39:06:380
4.3329,-5.8636,-0.1407,2.9882,-9.3132,-0.7107,0.2179,2.5082,0.6554,-0.2276,0.145,0.0415,-0.77,30.46,2.38,12.05,71.75,-103.38,73106,2016-03-24 12:39:06:480
5.0439,-8.0867,-3.1821,3.286,-9.1972,-0.8859,2.023,1.1039,-1.1633,-0.3829,0.5014,-0.3184,-1.25,30.46,3.18,16.72,69.69,-105.09,73205,2016-03-24 12:39:06:579
2.7715,-15.2653,2.2735,4.9035,-8.0829,-2.6063,2.9664,-2.5504,-0.513,-1.8742,-0.3897,-1.818,-2.82,28.33,4.39,9.94,55.51,-117.99,73305,2016-03-24 12:39:06:679
2.2803,-7.8741,-1.2312,5.7237,-7.1103,-3.5851,-3.445,-1.3467,2.959,0.0495,-0.1918,-0.4243,-8.27,24.72,9.79,26.89,47.13,-122.59,73406,2016-03-24 12:39:06:780
3.4186,-6.8008,-3.265,5.351,-7.6405,-3.0266,-2.8585,-0.0256,1.2011,0.8414,0.3761,0.8783,-9.3,23.75,9.73,27.35,46.47,-122.06,73506,2016-03-24 12:39:06:880
4.5636,-7.1395,-1.8413,4.0511,-8.6232,-2.3237,0.838,1.1433,-0.083,0.7367,-0.2313,1.039,-4.37,25.7,7.1,33.07,61.56,-119.84,73605,2016-03-24 12:39:06:979
3.6245,-6.8292,-1.6598,3.7587,-8.8218,-2.0537,0.4188,1.1604,-1.0587,0.576,-0.3235,0.4053,-2.46,25.72,7,37.49,64.1,-118.65,73705,2016-03-24 12:39:07:079
4.4239,-9.4622,-0.4636,3.4828,-9.0882,-1.202,1.2942,-3.0312,0.2985,1.1717,-0.2934,0.2823,-2.88,24.61,5.44,28.18,65.49,-116.11,73805,2016-03-24 12:39:07:179
6.9252,-14.7109,-1.6007,3.3642,-9.1858,-0.6879,0.622,-4.0432,0.9948,0.6664,-0.0231,0.1152,-2.04,22.58,4.06,32.76,69.5,-101.56,73905,2016-03-24 12:39:07:279
1.0915,-8.5655,1.7454,3.2277,-9.25,-0.4357,-1.8467,0.787,2.0003,0.4126,0.1552,0.2873,-1.33,21.93,3.17,25.35,70.6,-97.69,74005,2016-03-24 12:39:07:379
4.3648,-7.3239,-0.8717,2.9281,-9.3587,-0.1067,-0.3241,-0.5399,-0.2286,0.4792,0.0276,0.5512,-1.45,20.68,2.25,20.49,72.62,-92.09,74106,2016-03-24 12:39:07:480
2.826,-5.6602,-1.9217,2.6629,-9.4371,-0.1439,1.7272,2.9313,-2.1336,-0.7405,0.0501,-0.1883,-0.27,21.17,0.47,0,74.27,-88.07,74206,2016-03-24 12:39:07:580
7.0914,-6.3415,-3.619,2.93,-9.3356,-0.6569,0.0095,3.2839,-1.03,-0.8865,0.4815,-0.4624,2.32,20.14,1.54,17.53,72.17,-102.64,74306,2016-03-24 12:39:07:680
8.2656,-13.106,-0.4623,4.9849,-7.9963,-2.7168,0.8628,0.3359,-2.5856,-2.5711,-0.8333,-2.9516,-0.5,18.83,5.48,25.15,54.63,-118.59,74406,2016-03-24 12:39:07:780
1.4477,-6.9699,-0.7619,5.6938,-6.9936,-3.8523,1.9551,-7.7229,3.5849,-0.6022,-1.7093,-1.2115,1.61,14.92,7.71,48.77,54.63,-118.59,74507,2016-03-24 12:39:07:881
2.044,-6.4965,-3.6992,5.2516,-7.5156,-3.4795,-3.5718,0.4733,-0.2989,0.6764,0.193,0.4806,0.93,17.92,8.39,35.26,44.96,-126,74606,2016-03-24 12:39:07:980
5.4296,-8.0983,-3.4332,3.6612,-8.8706,-2.0195,1.6084,0.4771,-0.9704,1.0899,0.0457,1.9373,2.92,17.22,6.78,42.81,57.77,-121.5,74707,2016-03-24 12:39:08:081
4.2011,-7.5973,-4.0873,3.3328,-9.1082,-1.4502,1.7463,0.6188,-4.2124,1.5995,-0.4855,0.8144,6.04,16.51,7.28,45.27,64.76,-118.88,74806,2016-03-24 12:39:08:180
3.7832,-11.0968,-0.0872,3.2609,-9.2145,-0.7938,-0.2808,0.2903,-0.6805,0.3508,0.5194,0.0254,7.93,15.4,5.13,34.11,69.18,-109.2,74907,2016-03-24 12:39:08:281
5.7713,-14.4665,1.0107,3.1667,-9.278,-0.2486,0.948,-3.4303,0.2732,0.8969,-0.2758,0.1286,8.56,16.75,4.9,28.4,69.99,-103.68,75006,2016-03-24 12:39:08:380
2.5281,-8.9728,1.1346,2.9369,-9.3536,0.2347,-0.4496,0.3699,-0.5292,0.1302,0.1132,0.1842,12.03,16.98,3.86,10.22,72.52,-85.43,75106,2016-03-24 12:39:08:480
3.6714,-6.8384,-1.0021,2.7216,-9.4103,0.458,-0.0715,0.3243,0.3283,0.4339,-0.0453,0.3567,12.89,16.73,4.38,5.76,73.65,-80.45,75206,2016-03-24 12:39:08:580
3.5766,-7.3402,0.4654,3.0027,-9.3356,-0.0228,1.2041,3.9176,-2.7332,-0.5975,0.3065,-0.3863,14.7,17.17,2.78,3.7,73.93,-83.39,75305,2016-03-24 12:39:08:679
6.0504,-6.3801,-4.5997,3.5728,-9.1268,-0.3261,1.3449,2.7385,-1.6074,-0.6209,0.4751,-0.8292,15.43,16.91,3.5,12.35,68.54,-95.22,75405,2016-03-24 12:39:08:779
4.9443,-12.6416,1.152,5.4459,-7.8338,-2.268,-0.31,-6.1847,2.7349,-2.0004,-0.3981,-1.8604,16.38,23.17,4.71,20.5,61.21,-104.37,75510,2016-03-24 12:39:08:884
2.7677,-9.5535,-3.1008,5.6327,-7.4568,-2.9731,-1.077,-3.9415,2.1323,-0.7877,-0.9725,-0.7989,14.37,25.04,5.81,24.91,53.02,-112.61,75605,2016-03-24 12:39:08:979
3.1362,-6.4506,-3.3761,4.6826,-8.2298,-2.5521,-1.8538,0.7162,-1.3961,0.6223,0.0342,1.2779,13.94,27.85,3.92,23.1,57.06,-118.59,75705,2016-03-24 12:39:09:079
4.5625,-6.3235,-3.5182,4.0352,-8.6303,-2.325,-0.7971,2.1148,-0.9766,0.4304,0.0589,1.1262,16.41,27.23,4.05,24.19,57.06,-118.59,75805,2016-03-24 12:39:09:179
2.7375,-7.7382,-5.0542,3.702,-8.8964,-1.8218,0.1512,2.2459,-1.4077,0.3446,0.5774,0.2108,21.3,26.77,2.2,21.81,65.12,-116.2,75905,2016-03-24 12:39:09:279
6.9073,-9.5627,3.7091,3.5971,-9.0856,-0.827,0.2958,0.5015,-5.4242,0.6931,1.7643,0.2164,23.08,28.05,4.04,22.42,66.43,-111.51,76006,2016-03-24 12:39:09:380
1.9246,-17.4767,2.3711,3.68,-9.0891,-0.1287,3.2158,-2.9271,5.3652,0.2583,1.1275,-0.1251,23.49,28.57,4.86,18.12,67.89,-102.95,76106,2016-03-24 12:39:09:480
0.2196,-9.1809,3.5541,3.4822,-9.1596,0.381,-3.0233,-0.3839,2.9014,0.0754,1.5132,0.247,23.49,30.47,7.27,11.49,68.05,-89.09,76206,2016-03-24 12:39:09:580
2.769,-8.2086,1.6086,3.2209,-9.2336,0.7326,-0.4532,0.6154,0.6602,-0.3604,2.3163,0.3584,25.55,30.26,8.89,9.71,69.07,-83.76,76305,2016-03-24 12:39:09:679
4.3278,-8.8339,1.3016,2.7102,-9.3645,1.0633,1.7971,0.8355,-0.0508,-0.4671,1.9556,0.1567,23.99,29.23,17.03,11.13,72.73,-68.58,76405,2016-03-24 12:39:09:779
3.9954,-8.728,1.7428,2.479,-9.426,1.0839,1.4017,0.089,0.5543,-0.5037,1.894,0.3044,22.09,29.69,19.79,16.63,72.73,-68.58,76506,2016-03-24 12:39:09:880
4.9845,-8.5626,0.1434,2.1705,-9.5138,0.9729,3.1177,0.7827,-0.2642,-0.4803,1.8954,0.2538,21.15,29.55,23.37,19.56,73.98,-66.38,76606,2016-03-24 12:39:09:980
4.1882,-10.1003,1.0131,2.3662,-9.4898,0.7181,1.803,0.249,-1.1046,-0.5703,1.4089,-0.1927,20.79,28.86,28.11,30.87,75.4,-73.12,76706,2016-03-24 12:39:10:080
-3.6835,-11.4645,-0.3689,3.4445,-9.1501,-0.7627,-2.2215,-2.0874,-1.4152,-1.7225,0.8517,-1.0141,20.2,28.37,28.15,44.05,73.26,-87.92,76806,2016-03-24 12:39:10:180
4.6476,-10.6544,-1.5922,4.0792,-8.8137,-1.36,-7.592,-2.9304,0.8024,-2.2754,2.3809,-0.8662,18.99,24.38,30.9,63.17,63.99,-108.44,76905,2016-03-24 12:39:10:279
1.7043,-6.6857,-0.9552,5.4147,-7.9686,-1.8313,-3.9709,0.419,0.4624,-1.3817,1.6007,-0.9948,11.84,18.24,35.05,75.72,58.43,-108.93,77006,2016-03-24 12:39:10:380
3.5152,-5.6059,-1.1553,5.5343,-7.8787,-1.8622,-3.5282,2.3555,0.1485,-1,1.1737,-0.2114,8.65,14.79,37.55,81.55,54.35,-108.69,77106,2016-03-24 12:39:10:480
10.7251,-7.0027,-4.1659,5.2871,-8.2186,-0.8193,3.6612,0.7565,-2.8665,0.1861,1.7642,0.6587,3.11,12.45,38.9,84.11,56.94,-98.81,77206,2016-03-24 12:39:10:580
-0.7898,-8.6645,-0.5772,5.24,-8.2737,-0.5085,3.6662,-1.231,-2.7543,0.0174,0.6258,0.5011,-0.65,15.46,36.12,83.17,57.53,-95.54,77306,2016-03-24 12:39:10:680
5.1993,-9.023,0.1538,4.2912,-8.8175,0.085,-3.4039,0.5019,-0.0204,-0.0397,1.3907,0.9211,-1.42,16.84,36.05,78.72,64.04,-88.87,77406,2016-03-24 12:39:10:780
1.7901,-10.1372,-0.1622,3.7536,-9.0488,0.4474,-1.1454,-0.9825,-0.8877,0.0222,0.7652,0.2907,-1.2,19.42,33.58,75.46,66.1,-86.26,77506,2016-03-24 12:39:10:880
3.0184,-8.9825,-0.007,3.5167,-9.1314,0.6485,-1.437,-0.7642,-0.6001,-0.0965,1.157,0.289,-1.9,19.64,32.8,71.42,68.61,-79.55,77605,2016-03-24 12:39:10:979
3.449,-9.0335,0.2808,2.9909,-9.3006,0.8511,0.8489,0.104,-0.4898,-0.3453,1.3728,0.3752,-5.29,19.12,31.23,73.04,71.51,-74.12,77706,2016-03-24 12:39:11:080
4.0657,-8.6365,0.3472,2.7595,-9.3714,0.856,1.8155,0.5637,-0.2954,-0.3266,1.1671,0.3233,-6.77,18.83,28.96,76.01,72.87,-72.77,77806,2016-03-24 12:39:11:180
2.6158,-9.2364,-1.7084,2.6248,-9.4341,0.5273,0.8716,0.3256,-1.559,-0.5495,0.5108,-0.0512,-5.04,18.98,27.56,78.52,74.16,-78.64,77906,2016-03-24 12:39:11:280
3.1646,-10.857,-3.5686,2.8864,-9.3721,0.056,0.2049,-0.6901,-1.5712,-1.0298,0.7525,-0.5051,-4.01,18.24,26.93,85.82,72.88,-88.89,78006,2016-03-24 12:39:11:380
0.0166,-10.8415,-1.4567,4.3908,-8.6815,-1.2341,-3.8674,-2.6072,-1.5538,-1.4802,1.4256,-1.1509,-3.14,14.74,26.75,94.13,68.12,-100.88,78106,2016-03-24 12:39:11:480
2.0223,-6.3766,-1.7399,5.0013,-8.2864,-1.5791,-1.7858,-1.6408,-0.9893,-0.9822,0.5136,-0.9927,-4.48,12.55,25.32,98.3,62.28,-105.7,78205,2016-03-24 12:39:11:579
3.0504,-4.5931,-2.6773,5.3898,-7.9212,-2.0914,-3.0806,1.9284,-0.2411,-0.3456,-0.0898,0.0516,-3.3,10.5,25.69,98.53,54.66,-109.29,78306,2016-03-24 12:39:11:680
4.2101,-5.1508,-1.7073,5.2181,-8.0411,-2.0694,-1.9699,3.2309,-0.4121,0.1534,0.4197,0.5397,-2.17,10.57,26.45,97.51,55.08,-111.63,78405,2016-03-24 12:39:11:779
4.0411,-6.4062,-2.4515,4.5529,-8.6126,-1.1248,-0.2567,2.0904,-1.0682,0.9368,0.0252,0.7445,-1.43,15.81,24.19,85.68,61.43,-103.88,78505,2016-03-24 12:39:11:879
3.1058,-9.8656,-4.76,4.2139,-8.8277,-0.6959,0.2067,1.1162,-2.8769,1.0616,-0.7017,0.4397,1.28,21.82,23.3,72.75,64.18,-99.38,78605,2016-03-24 12:39:11:979
6.4929,-13.3682,-3.0497,3.9088,-8.9938,-0.0557,0.148,-5.841,-0.5251,0.7725,-0.3233,0.2169,2.3,24.38,19.18,63.66,64.18,-99.38,78706,2016-03-24 12:39:12:080
-0.2532,-9.8355,1.8978,3.9084,-8.9936,0.1027,-1.5996,0.3723,2.3637,-0.2419,-0.2041,-0.1814,4.77,26.54,17.7,49.91,66.24,-90.84,78806,2016-03-24 12:39:12:180
3.0601,-9.0075,-1.2089,3.6121,-9.102,0.5255,-2.0745,-1.5126,-0.2344,0.5842,0.4527,0.2923,6.16,28.08,16.54,41.24,68.15,-81.72,78906,2016-03-24 12:39:12:280
3.1987,-6.8411,-1.7164,3.212,-9.2338,0.7689,2.3484,2.202,-2.3946,0.253,0.043,0.4339,7.13,31.24,15.56,34.38,70.32,-76.54,79006,2016-03-24 12:39:12:380
3.8707,-7.4188,0.7386,3.3467,-9.2096,0.3917,-0.0431,2.1291,-1.9785,-0.4329,0.0462,-0.1573,8.27,32.19,15.38,30.75,70.32,-76.54,79105,2016-03-24 12:39:12:479
5.4458,-6.0825,-1.6686,4.1982,-8.8531,-0.4094,2.4357,1.1921,-1.1363,-0.7713,0.6052,-0.8336,6.65,32.21,16.09,41.68,64.52,-95.57,79206,2016-03-24 12:39:12:580
5.9902,-14.7168,-1.7236,5.0008,-8.2837,-1.5945,2.8073,-1.3945,-2.0395,-1.5124,-0.4623,-1.0783,5.74,33.28,18.1,46.71,57.64,-107.68,79306,2016-03-24 12:39:12:680
3.038,-10.1578,-2.1585,5.9505,-7.0813,-3.2584,-3.8887,-2.2941,1.6568,-0.7686,-0.7904,-1.0152,3.07,28.85,24.89,60.37,46.23,-118.7,79406,2016-03-24 12:39:12:780
2.8166,-5.3937,-2.8033,5.7156,-7.4149,-2.9192,-2.966,0.938,0.1916,0.5308,0.0876,0.3446,2.67,26.96,27.08,65.94,46.23,-118.7,79506,2016-03-24 12:39:12:880
4.4073,-6.8817,-3.4623,4.498,-8.5487,-1.6906,-0.2067,1.3058,-1.5464,1.1725,0.1368,1.254,5.52,30.16,24.07,63.53,60.66,-110.6,79606,2016-03-24 12:39:12:980
2.6708,-6.222,-2.7019,4.0674,-8.8373,-1.2366,0.6122,1.6732,-2.7127,0.9234,-0.007,0.826,7.56,30.82,21.93,58.07,64.31,-106.91,79705,2016-03-24 12:39:13:079
4.3341,-8.3047,0.452,3.7846,-9.0186,-0.715,-0.3935,1.4696,-3.3156,0.5081,0.0324,0.1599,12.08,30.38,17.03,45.4,65.97,-103.92,79806,2016-03-24 12:39:13:180
4.3809,-12.5586,-0.5964,3.7658,-9.0464,-0.3894,1.3445,0.108,0.0134,0.569,0.0128,0.0703,13.53,29.32,13.7,37.07,66.87,-100.7,79906,2016-03-24 12:39:13:280
0.6059,-7.6488,1.1553,3.8161,-9.0294,0.2788,0.9624,-3.2138,0.8267,0.0841,0.2522,-0.0995,15.07,27.46,11.79,25.69,67.44,-89,80006,2016-03-24 12:39:13:380
3.7415,-8.8626,-0.4422,3.4001,-9.1803,0.5759,0.2351,0.3397,-1.564,0.476,-0.2084,0.4697,15.16,31.43,10.2,17.96,67.93,-84.6,80105,2016-03-24 12:39:13:479
2.7243,-6.6961,-0.746,3.328,-9.215,0.4223,1.7433,3.073,-3.1486,-0.3136,-0.2294,0.0991,15.98,31.28,8.76,12.9,69.41,-80.39,80206,2016-03-24 12:39:13:580
6.0199,-7.6993,-2.8019,4.0716,-8.9171,-0.2805,1.7942,1.2361,-2.3881,-1.3554,0.9015,-1.1249,16.48,30.59,9.08,20.57,65.41,-93.94,80305,2016-03-24 12:39:13:679
6.2825,-15.3665,-1.7692,5.1577,-8.2009,-1.5214,1.3629,0.3316,-2.5067,-2.7121,-0.4226,-2.2547,14.15,29.71,10.12,24.01,65.41,-93.94,80406,2016-03-24 12:39:13:780
1.5707,-6.0567,-1.2171,5.9112,-6.9722,-3.5521,-5.3596,-3.21,2.3308,-0.1969,-0.483,0.1153,6.73,30.67,16.54,42.6,47.68,-116.28,80506,2016-03-24 12:39:13:880
3.1158,-6.3364,-3.4574,5.5822,-7.3466,-3.3221,-2.4193,-0.336,2.4857,0.8933,0.1474,0.8672,5.01,31.36,15.09,40.63,48.52,-120.76,80605,2016-03-24 12:39:13:979
5.4828,-5.1858,-2.4629,4.4032,-8.5776,-1.7908,0.9325,1.38,-0.5096,1.476,0.1103,0.7412,10.31,30.09,10.28,33.96,61.01,-112.13,80705,2016-03-24 12:39:14:079
3.9922,-6.4006,-5.0717,4.1551,-8.8053,-1.1714,1.0164,3.0589,-2.0269,1.476,0.1103,0.7412,10.31,30.09,10.28,33.96,61.01,-112.13,80805,2016-03-24 12:39:14:179
3.8228,-17.0085,0.1355,4.0776,-8.9082,-0.4336,-0.425,-6.6865,0.7862,0.4409,-0.1675,-0.1696,13.41,31.82,4.05,12.21,65.28,-96.07,80905,2016-03-24 12:39:14:279
2.5667,-9.1907,0.4277,4.0479,-8.9314,0.1216,2.1574,-4.235,-0.6811,1.1835,0.1321,0.1628,12.65,33.09,-0.67,0.85,65.28,-96.07,81005,2016-03-24 12:39:14:379
1.4079,-9.6559,-0.8409,3.8662,-8.9959,0.5446,-3.0576,-0.5929,0.8472,0.0896,0.0405,0.056,9.85,33.36,-7.38,338.67,66.54,-81.98,81108,2016-03-24 12:39:14:482
3.0035,-8.0467,-0.6896,3.5948,-9.0958,0.7174,-0.2369,-0.1048,-2.5869,0.5623,0.1828,0.4677,8.76,32.51,-9.3,333.24,66.54,-81.98,81206,2016-03-24 12:39:14:580
2.9803,-6.4946,0.3448,3.3939,-9.181,0.6011,-0.5346,1.9522,-0.9568,-0.0648,-0.0781,0.1345,7.9,34,-10.57,325.3,69.03,-79.74,81307,2016-03-24 12:39:14:681
7.2385,-6.1139,-5.2859,4.1207,-8.8912,-0.3707,1.382,0.0326,-2.5012,-1.2509,0.5305,-0.7421,3.66,33.98,-12.92,316.95,68.88,-82.44,81407,2016-03-24 12:39:14:781
5.6287,-16.5834,-0.9184,5.3305,-8.0225,-1.8426,1.4981,0.6666,-3.0873,-2.4294,-0.1269,-2.0045,0.35,34.6,-11.92,334.08,54.89,-109.07,81505,2016-03-24 12:39:14:879
1.2345,-5.7703,-1.8975,5.8318,-7.2032,-3.2054,-4.3612,0.5807,1.676,-0.1162,-0.7142,-0.2289,-14.75,35.04,-4.86,323.81,47.27,-118.8,81605,2016-03-24 12:39:14:979
3.652,-7.0533,-2.8209,5.3916,-7.8276,-2.4145,-3.1562,2.0709,-0.0642,1.0697,0.696,1.0039,-17.38,33.46,-3.81,317.73,47.27,-118.8,81705,2016-03-24 12:39:15:079
3.8854,-6.6014,-4.3648,4.0463,-8.8891,-0.8841,0.4772,1.4913,-2.3567,1.2302,0.1784,1.0971,-12.8,34,-8.78,304.88,60.02,-109,81805,2016-03-24 12:39:15:179
4.3282,-7.8467,-4.3872,3.799,-9.0356,-0.31,0.615,1.7219,-2.85,0.8497,0.4966,0.4645,-9.9,32.5,-11.29,290.77,67.13,-94.66,81906,2016-03-24 12:39:15:280
7.2293,-15.0445,-3.4108,3.7806,-9.0469,0.1766,1.0918,-0.5397,-1.6305,0.5551,-0.4932,-0.0216,-10,32.22,-16.82,278.28,67.3,-87.33,82006,2016-03-24 12:39:15:380
4.3998,-12.4246,-0.1578,3.8338,-9.0224,0.2617,1.9161,-5.5475,-2.5663,0.4153,-0.5055,-0.0775,-13.44,32.04,-18.57,268.15,66.93,-86.1,82106,2016-03-24 12:39:15:480
3.2485,-8.8639,-1.0763,3.6514,-9.0795,0.6326,-2.2194,-0.0448,0.8657,0.5143,0.0893,0.3552,-16.71,32.01,-19.05,247.91,67.8,-80.17,82206,2016-03-24 12:39:15:580
3.979,-7.2658,-1.1947,3.3595,-9.1763,0.8249,-0.2897,-0.5666,-1.5241,0.2343,-0.0416,0.4582,-17.73,31.36,-20.23,236.84,69.34,-76.2,82306,2016-03-24 12:39:15:680
5.1705,-6.9577,-1.3675,3.2327,-9.2289,0.74,0.5195,2.8973,-1.6758,-0.3309,0.7298,-0.1105,-18.26,31.33,-20.03,235.19,70.26,-76.12,82405,2016-03-24 12:39:15:779
3.9893,-7.5304,-5.9232,3.549,-9.1274,0.5153,2.9663,1.8905,-1.6733,-0.5539,0.1853,-0.6205,-17.94,32.28,-23.19,240.24,70.23,-77.11,82506,2016-03-24 12:39:15:880
6.4001,-15.5077,1.4113,5.5586,-7.9626,-1.3674,-0.4941,-4.6331,-0.0377,-1.7018,-0.5332,-1.8689,-26.66,31.32,-19.93,248.62,62.91,-94.13,82606,2016-03-24 12:39:15:980
3.019,-7.6666,-2.6803,5.9443,-7.5206,-2.0679,-1.8805,-4.2697,1.6349,-0.2408,-0.8949,-0.4846,-31.76,31.26,-17.24,260.97,54.29,-103.82,82705,2016-03-24 12:39:16:079
2.6915,-6.2783,-2.5843,5.3132,-8.1012,-1.5203,-2.2044,1.3669,-1.8136,0.8984,0.3914,1.2559,-34.48,30.02,-15.15,254.29,55.7,-105.97,82805,2016-03-24 12:39:16:179
5.0799,-6.829,-4.1671,3.923,-8.9646,-0.6456,0.2685,1.1533,-0.8506,0.6686,-0.0872,1.4949,-32.1,31.41,-18.46,261.6,55.7,-105.97,82905,2016-03-24 12:39:16:279
4.8913,-7.5231,-2.142,3.7088,-9.0756,-0.2225,1.5266,1.8797,-3.8606,0.8481,0.0233,0.737,-30.31,32.12,-21.48,237.63,67.74,-93.43,83005,2016-03-24 12:39:16:379
2.775,-14.723,-0.6335,3.7114,-9.0614,0.5361,0.0377,-0.4867,-2.1808,0.9987,0.1919,-0.0142,-27.15,31.71,-23.39,234.43,67.69,-84.83,83106,2016-03-24 12:39:16:480
4.5062,-10.5532,-6.0453,3.7947,-9.0286,0.5053,3.6733,-5.3438,-2.8411,-0.0299,-0.6769,0.0067,-26.2,27.95,-25.27,233.43,67.02,-82.41,83206,2016-03-24 12:39:16:580
3.395,-8.985,-2.1521,3.4487,-9.1329,0.9312,-0.1535,-0.4374,-0.4853,0.2324,-0.1578,0.3588,-29.27,26.8,-25.17,216.61,68.64,-74.89,83306,2016-03-24 12:39:16:680
5.0243,-6.901,-2.1942,3.1997,-9.1916,1.203,0.6437,1.7292,-2.1927,0.5455,0.2847,0.4784,-28.57,26.47,-25.51,209.52,69.6,-69.4,83406,2016-03-24 12:39:16:780
5.564,-7.4542,-0.3153,3.1145,-9.2315,1.1182,0.5638,2.2732,-0.2256,-0.1191,-0.1161,0.0523,-29.16,27.07,-26.33,209.65,70.2,-69.53,83506,2016-03-24 12:39:16:880
3.2769,-7.6046,-3.3308,3.4691,-9.129,0.8927,3.0219,1.3987,-2.2073,-0.1956,0.1071,-0.3305,-27.93,27.51,-25.66,212.42,70.28,-70.25,83605,2016-03-24 12:39:16:979
5.5372,-16.151,1.3708,5.4791,-8.0338,-1.2678,-0.0048,0.5552,-1.3759,-2.1211,-0.2585,-2.0851,-30.37,24.72,-21.15,233.45,63.59,-90.26,83705,2016-03-24 12:39:17:079
3.1942,-10.3533,-1.1582,6.0335,-7.4241,-2.1562,-1.0000E-04,-7.3091,3.7352,-1.1557,-1.1842,-1.6202,-32.08,21.96,-15.44,259.49,49.2,-109.67,83805,2016-03-24 12:39:17:179
3.9863,-8.625,-4.2163,5.4688,-8.0523,-1.193,-1.3027,-0.7833,-1.0435,1.0654,0.6521,1.0985,-33.18,20.24,-8.87,244.32,49.97,-108.04,83906,2016-03-24 12:39:17:280
5.2325,-7.1365,-3.5321,4.7304,-8.5544,-0.7848,-0.3396,0.4823,-2.3041,0.7649,0.062,1.3656,-31.51,22.26,-9.82,224.53,60.73,-99.42,84006,2016-03-24 12:39:17:380
2.6013,-7.1403,-2.1197,3.9878,-8.9445,-0.5138,-0.0685,2.2575,-0.1393,0.16,0.4418,0.4263,-25.17,27.04,-9.66,231.64,65.8,-97.34,84106,2016-03-24 12:39:17:480
3.5706,-6.7178,-2.359,3.5238,-9.1517,0.0031,-0.3357,1.9653,-2.2079,0.2266,0.5509,0.5305,-21.78,29.48,-9.47,221.59,68.94,-89.95,84206,2016-03-24 12:39:17:580
8.2488,-16.7823,-2.1471,3.2987,-9.2178,0.567,2.2299,3.4394,-1.1159,0.8966,0.7509,0.3627,-18.59,29.26,-8.8,211.74,70.04,-80.25,84306,2016-03-24 12:39:17:680
5.2384,-19.4222,-0.9057,3.3136,-9.1159,1.4462,-1.3007,-4.8116,-1.1579,0.2842,0.4576,0.2085,-13.45,30.01,-10.86,238.05,68.61,-70.97,84405,2016-03-24 12:39:17:779
1.7488,-10.8114,3.9572,3.0448,-9.1563,1.7498,-0.547,-1.669,-1.0066,0.3377,0.9274,0.1786,-13.08,30.07,-11.82,216.21,69.02,-60.12,84505,2016-03-24 12:39:17:879
3.3571,-7.1818,2.4674,2.4364,-9.2841,2.0099,-0.7328,-0.5273,-3.3129,-0.3472,1.5544,0.166,-7.23,30.77,-13.67,240.69,71.21,-50.48,84605,2016-03-24 12:39:17:979
1.961,-9.4722,0.4654,2.1292,-9.3417,2.0904,0.4658,1.9579,0.5143,-0.2226,1.6049,0.227,-4.35,31.9,-13.21,255.63,72.29,-45.53,84705,2016-03-24 12:39:18:079
4.5732,-9.0135,0.4955,1.4675,-9.4796,2.0383,3.4027,0.2452,-0.9181,-0.3373,1.4374,0.2052,0.19,32.37,-12.53,266.13,73.68,-40,84805,2016-03-24 12:39:18:179
3.8918,-9.0856,-0.3496,1.4289,-9.5205,1.868,3.6059,0.1738,-1.3403,-0.5328,1.201,-0.3473,5.06,33.11,-11.19,284.16,75.16,-35.75,84905,2016-03-24 12:39:18:279
-0.157,-12.5213,-1.4678,2.3064,-9.492,0.8678,0.6264,-1.5025,-2.6509,-0.4545,0.2128,-0.6873,5.56,32.45,-8.81,292.66,76.12,-37.41,85005,2016-03-24 12:39:18:379
0.114,-12.1128,-3.3593,3.0238,-9.3288,-0.0388,-3.4867,-3.3969,-1.1806,-2.1779,1.3914,-1.3384,6.78,35.05,-8.21,335.74,72.04,-90.74,85106,2016-03-24 12:39:18:480
0.5056,-6.1182,-1.1189,4.7648,-8.4343,-1.5261,-1.0843,-1.4015,1.6903,-2.1275,1.392,-1.5861,7.35,36.5,0.39,5.06,59.32,-107.76,85206,2016-03-24 12:39:18:580
1.2049,-4.4573,-0.7305,5.072,-8.1128,-2.1513,-3.8092,0.8418,0.7814,-1.7028,0.5538,-0.9211,6.4,37.64,7.46,20.72,59.32,-107.76,85306,2016-03-24 12:39:18:680
9.909,-5.441,-8.0699,4.5592,-8.4745,-1.8885,-2.4666,3.379,0.7631,-0.0964,1.2069,1.0119,6.75,36.03,14.07,37.89,56.76,-114.94,85406,2016-03-24 12:39:18:780
3.7176,-15.301,0.9308,4.716,-8.5107,-1.2236,0.1365,-5.7933,-0.3381,-0.1335,1.0893,-0.0411,10.14,37.01,15.21,38.2,60.18,-109.56,85506,2016-03-24 12:39:18:880
2.912,-9.1138,2.4945,4.4964,-8.674,-0.8452,-7.3504,-0.3079,-1.4837,0.224,1.3599,0.1123,10.79,38.58,16.58,36.88,62.19,-100.65,85605,2016-03-24 12:39:18:979
3.664,-10.3416,-1.0895,3.6039,-9.1202,-0.0582,1.5499,-1.083,0.0297,0.3284,1.2167,0.7831,14.58,40.41,19.9,38.61,65.9,-97.89,85705,2016-03-24 12:39:19:079
2.9708,-8.9413,1.4428,3.3808,-9.2039,0.1685,-1.7812,-0.9835,-1.2862,-0.1271,1.7417,0.3234,15.13,40.57,19.7,33.41,69.81,-87.15,85805,2016-03-24 12:39:19:179
3.8829,-8.8374,0.3355,3.0345,-9.3147,0.4449,0.4765,0.1346,0.3488,-0.3057,1.8212,0.229,15.2,40.46,22.27,35.6,70.94,-85.29,85906,2016-03-24 12:39:19:280
3.9522,-8.4476,0.4833,2.9214,-9.3447,0.5584,1.159,0.3916,-0.2743,-0.3912,1.8744,0.1416,13.5,39.65,24.31,36.47,72.34,-79.18,86006,2016-03-24 12:39:19:380
4.2405,-8.7238,1.3262,2.5772,-9.4441,0.5807,1.4344,0.3669,-0.4515,-0.3646,1.188,0.3226,10.5,37.46,28.4,43.51,74.37,-77.3,86105,2016-03-24 12:39:19:479
2.7343,-8.9927,-0.4638,2.4095,-9.4925,0.5073,2.0483,0.5304,0.8736,-0.3588,0.8448,0.2774,9.23,37.71,29.23,46.66,74.37,-77.3,86205,2016-03-24 12:39:19:579
2.7802,-10.2709,-0.6647,2.3401,-9.5233,-0.0343,0.3334,-1.1538,-1.1773,-0.6444,0.3804,-0.0594,11.66,36.19,31.43,50.4,76.16,-82.45,86306,2016-03-24 12:39:19:680
0.1694,-10.6067,-2.5222,2.6845,-9.415,-0.5678,0.0717,-0.3573,-0.5906,-1.0937,0.6258,-0.6371,14,34.16,31.39,55.72,76.19,-90.84,86406,2016-03-24 12:39:19:780
3.3288,-9.4984,-2.3465,4.2068,-8.7141,-1.593,-2.6634,-0.9788,0.1784,-1.0905,1.4927,-1.1402,9.7,29.3,35.78,74.55,62.7,-110.74,86506,2016-03-24 12:39:19:880
1.0199,-7.0999,-1.5369,4.8294,-8.3449,-1.7917,-0.467,-1.3618,-0.8968,-0.6451,0.2385,-0.9588,5.54,26.91,35.98,76.94,58.31,-110.36,86605,2016-03-24 12:39:19:979
5.0017,-7.1347,-2.6481,4.9964,-8.188,-2.0404,-2.1461,1.3288,-0.4653,-0.1897,0.2377,0.3656,6.11,24.07,34.81,78.05,56.24,-111.41,86705,2016-03-24 12:39:20:079
4.6723,-8.0333,-2.8488,4.7487,-8.3622,-1.9219,0.0308,0.9737,-0.5677,0.1393,0.5303,0.6344,5.79,24.63,34.5,77.2,56.61,-112.21,86805,2016-03-24 12:39:20:179
5.5421,-6.3059,-2.2299,4.1121,-8.7775,-1.4889,1.5358,0.5363,-1.6587,0.1029,0.1751,0.2758,3.31,26.85,32.9,80.9,61.53,-110.64,86905,2016-03-24 12:39:20:279
2.5771,-6.7329,-1.134,4.0865,-8.8005,-1.422,-1.0399,1.5564,-0.58,0.0395,-0.3849,0.0236,4.88,29.03,31.95,76.37,63.72,-109.01,87005,2016-03-24 12:39:20:379
2.6198,-6.7615,-2.0145,3.9699,-8.855,-1.4138,-1.6829,1.3361,-0.2131,0.0395,-0.3849,0.0236,4.88,29.03,31.95,76.37,63.72,-109.01,87105,2016-03-24 12:39:20:479
4.2342,-12.5475,-2.2517,3.6617,-9.0461,-0.9647,-0.3678,-0.389,-2.6719,0.7318,-0.6668,0.1725,5.76,32.08,32.72,74.78,65.8,-107.95,87205,2016-03-24 12:39:20:579
9.4458,-16.9063,-6.0544,3.6174,-9.0986,-0.5489,-0.2273,-6.886,0.3378,1.0114,-0.8586,0.1679,6.4,35.11,31.49,69.82,67.29,-104.76,87306,2016-03-24 12:39:20:680
2.237,-10.9824,-3.0476,3.8865,-8.9971,-0.3413,-2.9061,1.3451,3.7259,-0.399,0.0727,-0.3169,8.58,37.21,29.13,55.21,66.56,-95.02,87406,2016-03-24 12:39:20:780
5.0086,-8.4606,-1.3797,3.658,-9.0988,0.0354,-1.4299,-1.4022,-2.226,0.7029,0.6222,0.2403,7.28,36.33,29.08,55.1,68.1,-89.45,87506,2016-03-24 12:39:20:880
3.4459,-9.0438,-1.2346,3.322,-9.2219,0.3028,1.8365,0.9782,-0.8591,0.2043,0.072,0.2822,8.52,38.12,28.48,48.74,70.11,-84.79,87605,2016-03-24 12:39:20:979
4.0968,-8.073,-0.2411,3.1931,-9.2626,0.4234,0.7323,0.3636,-1.4906,0.2521,0.0629,0.1917,8.65,38.15,28.03,48.74,70.11,-84.79,87705,2016-03-24 12:39:21:079
3.4787,-6.7024,-0.5735,2.9735,-9.335,0.4325,1.1807,1.2253,-1.002,0.0819,-0.3411,0.1845,9.86,37.58,25.28,43.58,72.16,-81.72,87805,2016-03-24 12:39:21:179
3.155,-7.2314,0.0542,3.0338,-9.3256,0.0236,-0.2891,2.6866,-0.9679,-0.5076,-0.2425,-0.0407,10.59,36.48,23.7,47.68,71.98,-89.55,87909,2016-03-24 12:39:21:283
7.3212,-9.4034,-4.5959,3.8278,-8.9668,-1.0559,1.736,1.0788,-3.5701,-1.0687,0.1099,-0.8298,6.78,34.17,24.76,58.8,70.38,-96.03,88008,2016-03-24 12:39:21:382
1.4447,-12.891,-1.5106,5.4365,-7.3126,-3.625,-1.6448,-7.4862,2.5569,-1.8363,-0.921,-1.7043,1.52,29.41,31.41,78.54,56.44,-117.01,88105,2016-03-24 12:39:21:479
1.4876,-5.5974,-2.6895,5.5382,-7.1643,-3.7645,-3.0787,-1.8078,2.3537,-0.091,-0.2148,-0.3944,-0.5,24.96,34.49,83.69,46.93,-124.21,88205,2016-03-24 12:39:21:579
3.3853,-6.8888,-2.6678,4.6017,-8.2475,-2.6406,-2.1855,1.6849,0.019,1.0066,0.1897,1.3239,-1.48,26.92,32.01,82.95,50.97,-121.63,88306,2016-03-24 12:39:21:680
4.268,-6.6593,-3.2614,4.0449,-8.7025,-2.019,0.3347,1.443,-0.6521,1.1013,0.1785,1.0166,-1.53,31.42,30.25,88.2,62.55,-116.53,88406,2016-03-24 12:39:21:780
4.1688,-7.9919,-4.5275,3.684,-9.0128,-1.1692,0.5701,1.9434,-0.5744,0.6127,0.5235,0.1735,0,35.03,28.18,79.66,65.48,-112.66,88506,2016-03-24 12:39:21:880
3.1447,-12.5429,-0.9076,3.6459,-9.0819,-0.6304,0.5151,0.9102,-3.4373,0.9374,0.2248,0.1044,-1.13,37.06,26.09,75.18,66.79,-107.61,88605,2016-03-24 12:39:21:979
9.2969,-18.9179,-7.543,3.5497,-9.1415,-0.0474,2.2209,-4.206,-0.2101,0.9438,0.6985,0.117,-4.23,40.4,21.51,64.48,68.78,-90.76,88706,2016-03-24 12:39:22:080
3.0261,-9.3586,1.4897,3.4591,-9.1665,0.4254,-0.6496,0.285,-0.7594,0.2461,0.1503,0.1059,-4.42,40.86,20.09,57.13,69.18,-82.99,88805,2016-03-24 12:39:22:179
5.4356,-6.3825,-2.6898,2.9439,-9.3128,0.8809,0.5661,0.3289,-1.3139,0.4554,-0.0487,0.5492,-1.99,41.7,16.9,48.15,70.26,-79.35,88905,2016-03-24 12:39:22:279
3.4056,-6.5903,-0.0507,2.8533,-9.3545,0.7225,2.3558,3.0093,-4.0229,-0.594,-0.1846,-0.0125,-2.27,42.94,16.28,44.81,71.74,-73.34,89006,2016-03-24 12:39:22:380
5.8511,-6.7182,-5.6357,3.6939,-9.077,-0.3656,1.5413,1.0586,-1.6098,-2.1162,0.5228,-1.5426,-4.98,41.01,15.28,58,71.93,-83.24,89106,2016-03-24 12:39:22:480
4.1215,-15.1572,-1.0173,4.9059,-8.2591,-1.9724,0.2684,0.5813,-3.1983,-2.1162,0.5228,-1.5426,-4.98,41.01,15.28,58,71.93,-83.24,89206,2016-03-24 12:39:22:580
1.0668,-6.7723,-2.1537,5.7338,-7.0024,-3.7763,-2.7896,-4.6161,2.6246,-1.3659,-1.3296,-1.0968,-13.97,31.82,23.44,66.43,45.57,-123.37,89306,2016-03-24 12:39:22:680
3.2192,-6.1401,-2.6576,5.3478,-7.5903,-3.1558,-4.0252,0.8555,1.3953,0.5799,0.9046,0.4281,-14.67,27.38,26.43,101.97,50.71,-120.55,89406,2016-03-24 12:39:22:780
4.9776,-7.4369,-4.9006,3.8103,-8.9234,-1.4228,1.6009,1.2253,-2.19,1.6032,0.0483,1.5401,-14.01,31.3,21.06,103.58,58.65,-118.17,89506,2016-03-24 12:39:22:880
4.3505,-10.6299,-6.6526,3.4701,-9.1694,-0.2262,0.6767,-3.8354,-5.0822,1.0285,-0.2103,0.1034,-11.07,33.45,13.6,89.92,68.33,-99.19,89606,2016-03-24 12:39:22:980
3.5235,-9.8287,1.8502,3.5249,-9.1488,-0.2138,1.5114,-4.4711,-0.2127,0.2309,-0.0954,0.071,-10.22,33.94,10.69,77.45,68.89,-93.47,89705,2016-03-24 12:39:23:079
0.4531,-8.2722,2.2269,3.3932,-9.2001,-0.124,-1.5779,-0.5197,0.8973,0.2239,-0.1451,0.2464,-12.65,31.15,9.72,100.69,69.74,-92.09,89805,2016-03-24 12:39:23:179
3.5503,-6.4456,-1.2799,2.9914,-9.3376,0.1786,-0.524,0.4649,-0.9396,0.5071,0.2574,0.6671,-12.01,31.56,9.54,93.08,69.74,-92.09,89905,2016-03-24 12:39:23:279
2.7138,-5.7761,-2.5772,2.8322,-9.3876,-0.1485,0.7067,2.3618,-2.1894,-0.5291,0.2898,0.0012,-9.77,33.71,7.5,90.98,73.19,-93,90006,2016-03-24 12:39:23:380
6.0436,-7.1959,-4.5883,3.2873,-9.2208,-0.584,-0.3938,3.5229,0.276,-0.9843,0.6896,-0.6404,-11.32,31.58,8.12,102.64,73.19,-93,90106,2016-03-24 12:39:23:480
2.0889,-14.3512,-1.8384,5.2599,-7.7182,-2.9888,0.5805,-8.4538,1.6216,-2.1824,-0.8578,-2.1739,-14.37,27.39,11.36,43.4,51.91,-119.61,90206,2016-03-24 12:39:23:580
1.4819,-7.7388,-1.9708,5.6385,-7.1603,-3.6205,-4.8057,-1.8462,2.0494,-0.733,-0.7145,-1.1746,-15.72,22.16,16.61,120.11,51.91,-119.61,90305,2016-03-24 12:39:23:679
5.0267,-7.2187,-3.0078,4.8128,-8.0895,-2.7509,-0.9979,1.7726,-0.6029,1.0732,0.5072,1.4618,-16.13,19.02,17.37,128.66,49.17,-122.22,90405,2016-03-24 12:39:23:779
4.2127,-7.9571,-2.9274,4.1222,-8.683,-1.9448,0.854,1.3854,-1.071,1.3153,0.3151,1.3318,-14.47,21.13,15.09,125.26,55.58,-119.75,90505,2016-03-24 12:39:23:879
4.6618,-7.0615,-2.8943,3.5069,-9.1259,-0.7682,1.0137,1.314,-2.3718,0.6404,0.5719,0.2895,-12.31,23.94,11.18,117.81,68.53,-102.36,90606,2016-03-24 12:39:23:980
5.7447,-12.3703,-2.2727,3.4781,-9.1603,-0.4025,1.419,1.3578,-3.589,0.5081,0.4517,0.0927,-11.93,23.97,10.37,119.74,68.53,-102.36,90706,2016-03-24 12:39:24:080
4.8684,-16.7577,-4.392,3.4499,-9.1773,0.2157,2.1429,-3.2069,-1.3087,0.6818,-0.3366,-0.0069,-10.56,22.94,8.86,105.39,69.41,-91.36,90806,2016-03-24 12:39:24:180
1.6192,-7.522,1.2402,3.3952,-9.199,0.1485,-0.0679,-0.612,-1.6582,0.2555,-0.2072,0.1611,-9.44,23.67,8.28,88.56,69.72,-87.5,90906,2016-03-24 12:39:24:280
3.9333,-6.3846,-0.1178,3.2155,-9.2633,0.1521,-1.1516,1.035,-1.5297,-0.0853,-0.1668,0.3585,-9.78,23.56,9.14,94.16,69.72,-87.5,91005,2016-03-24 12:39:24:379
3.2266,-7.5714,-0.774,3.2031,-9.2685,-0.0782,-0.0286,2.4698,-0.9142,-0.3469,0.6854,-0.33,-8.32,23.79,8.06,89.46,71.54,-89.49,91105,2016-03-24 12:39:24:479
6.0519,-9.1159,-3.6541,3.7853,-9.0383,-0.389,2.8619,1.3678,-1.6447,-1.1816,0.7141,-1.3563,-9.65,24.09,9.72,100.67,70.93,-91.4,91205,2016-03-24 12:39:24:579
2.664,-12.8743,-0.0144,5.6604,-7.5204,-2.7521,0.2327,-5.843,2.7538,-2.6389,-0.5943,-2.4689,-10,21.97,9.14,78.85,58.48,-106.71,91305,2016-03-24 12:39:24:679
3.1155,-5.8529,-2.5451,5.6895,-7.2559,-3.3393,-4.0777,-3.6737,2.051,-1.289,-1.2119,-1.0356,-9.64,18.88,12.2,78.78,50.07,-115.93,91407,2016-03-24 12:39:24:781
3.3905,-5.0795,-2.0228,4.7248,-8.1236,-2.8026,-2.0073,2.3629,0.4097,0.5903,0.3024,1.2407,-8.07,16.63,14.82,105.92,55.93,-120.67,91507,2016-03-24 12:39:24:881
4.1873,-8.0008,-4.2528,4.121,-8.6236,-2.1959,-0.5235,3.2087,0.0195,0.8354,0.0584,1.3092,-7.58,18.53,13.84,96.97,55.93,-120.67,91606,2016-03-24 12:39:24:980
3.7021,-7.3064,-4.7397,3.6646,-9.0293,-1.1017,0.9208,0.5914,-2.185,0.8764,-0.1454,0.2912,-6.39,20.56,11.37,90.08,67.03,-106.73,91705,2016-03-24 12:39:25:079
3.8258,-15.0459,-1.1965,3.6522,-9.0796,-0.6261,0.8241,-1.386,-0.7314,0.7371,0.4937,0.0285,-6.67,21.87,9.48,86.15,67.8,-99.73,91805,2016-03-24 12:39:25:179
2.7845,-8.7598,2.2291,3.6587,-9.0863,-0.4734,2.1335,-5.1504,-0.946,-0.0706,0.1386,-0.0474,-4.16,21.28,7.14,62.64,68.21,-96.57,91905,2016-03-24 12:39:25:279
2.1912,-8.9195,-0.617,3.5285,-9.1454,-0.2853,-1.8962,0.0387,2.42,0.0253,0.1845,0.092,-3.8,22.11,6.1,56.31,68.84,-94.62,92005,2016-03-24 12:39:25:379
4.9634,-6.8247,-1.7082,2.9281,-9.3561,0.2448,0.8514,1.0852,-1.3384,0.2669,0.2756,0.4868,-2.7,22.63,7.3,57.54,72.56,-85.22,92106,2016-03-24 12:39:25:480
2.5078,-7.1792,-0.2983,2.9563,-9.3501,-0.0751,-0.1687,1.8676,-1.1452,-0.4619,0.1834,-0.1148,0.06,24.23,5.72,40.22,72.45,-91.46,92206,2016-03-24 12:39:25:580
5.6783,-7.7737,-2.3347,3.2675,-9.2385,-0.3787,1.6137,2.3349,1.1264,-0.6001,0.1692,-0.4499,0.86,25.03,5.98,35.82,72.45,-91.46,92306,2016-03-24 12:39:25:680
4.9253,-11.383,0.6474,5.0861,-7.9485,-2.6688,1.1082,-0.1795,-2.1095,-2.2059,-0.806,-2.0486,-0.13,23.75,8.68,36.76,54.15,-117.69,92406,2016-03-24 12:39:25:780
2.9506,-9.3464,-1.9357,5.5407,-7.2272,-3.6385,-1.0684,-5.7052,4.6644,-1.058,-1.2471,-1.4437,0.09,24.68,10.91,42.85,54.15,-117.69,92505,2016-03-24 12:39:25:879
3.8162,-6.3724,-3.871,5.0428,-7.8134,-3.1131,-1.1757,0.9133,-0.7115,1.201,-0.2396,1.0438,-0.65,24.88,10.76,36.28,47.61,-123.36,92605,2016-03-24 12:39:25:979
4.8719,-6.7977,-3.8122,4.3499,-8.3464,-2.7543,0.7086,1.2929,-1.3169,1.1213,-0.9877,1.0129,0.37,24.46,8.06,37.04,58.33,-122.34,92705,2016-03-24 12:39:26:079
5.3174,-7.7116,-4.0167,3.7689,-8.6972,-2.515,0.8559,-0.0327,-2.5577,0.1377,-0.5008,-0.178,2.84,25.72,5.23,26.34,62.48,-123.71,92806,2016-03-24 12:39:26:180
3.9301,-5.7713,-4.0359,3.8509,-8.6994,-2.3792,-0.4595,1.9704,-0.4958,0.4901,0.186,-0.0282,2.32,26.21,2.86,16.71,62.48,-123.71,92906,2016-03-24 12:39:26:280
1.5806,-18.4301,-0.2063,3.6414,-9.0111,-1.308,1.402,-3.2989,1.8971,1.5201,-0.7193,0.1089,1.83,26.09,-1.45,358.77,66.76,-109.76,93006,2016-03-24 12:39:26:380
3.1118,-9.7166,3.5977,3.4772,-9.1269,-0.8824,-1.2952,-7.0924,-0.9759,0.5437,-0.6366,0.136,2.7,25.68,-3.63,346.56,68.54,-104.24,93106,2016-03-24 12:39:26:480
2.2885,-7.545,1.3474,3.0421,-9.3226,0.0763,-2.0041,-1.5545,-1.1799,0.653,0.0357,0.6109,3.66,24.45,-6.6,327.36,71.92,-88.56,93206,2016-03-24 12:39:26:580
4.1311,-9.7983,-2.0386,2.6861,-9.4145,0.5682,-0.5334,1.486,0.6243,0.9124,0.0199,0.5325,4.53,23.59,-7.79,317.95,73.74,-78.06,93306,2016-03-24 12:39:26:680
2.6785,-8.9913,1.2669,2.3375,-9.4786,0.9287,1.4116,0.122,0.378,0.1216,-0.2563,0.2688,4.72,23.41,-8.33,309.07,75.14,-68.33,93406,2016-03-24 12:39:26:780
2.9115,-10.307,2.1332,2.0005,-9.5215,1.2283,1.3681,-0.3852,1.1943,0.233,-0.5334,0.3806,3.14,21.94,-11.96,283.96,75.91,-64.73,93506,2016-03-24 12:39:26:880
1.929,-9.6361,-1.1989,1.9066,-9.5308,1.3036,0.5765,0.2349,-1.6359,0.5842,-0.7057,0.3336,2.73,22.46,-13.42,275.17,76.15,-58.45,93605,2016-03-24 12:39:26:979
3.514,-8.3213,-0.9079,2.3101,-9.5306,-0.0452,1.033,1.1433,-1.6724,-0.9217,-1.0254,-0.2741,-2.95,21.8,-13.1,253.23,77.24,-64.92,93706,2016-03-24 12:39:27:080
4.9421,-10.7116,0.2927,2.9679,-9.3019,-0.9152,0.9153,-0.0324,2.3503,-1.5693,-0.8934,-0.9933,-6.65,22.07,-11.79,263.47,76.37,-91.12,93806,2016-03-24 12:39:27:180
2.9264,-8.2867,0.7479,4.1286,-8.7589,-1.5517,0.16,-0.9317,2.2407,0.3299,-1.9311,-1.221,-20.76,17.57,-6.69,242.48,63.27,-110.6,93906,2016-03-24 12:39:27:280
2.0878,-7.9886,-0.8023,4.2221,-8.7233,-1.4995,-1.4144,0.4998,2.1805,1.0237,-2.1242,-0.6192,-26.19,11.54,1.59,203.21,63.27,-110.6,94006,2016-03-24 12:39:27:380
3.51,-9.3229,-2.5015,3.489,-9.0657,-1.3456,0.7005,-0.2568,-1.243,1.1131,-2.5092,0.5172,-26.49,2.03,20.43,161.81,67.58,-111.09,94106,2016-03-24 12:39:27:480
-1.2818,-7.5431,0.3309,3.1855,-9.1861,-1.2796,0.9463,2.0694,2.0717,0.9101,-2.4774,0.3616,-20.24,1.28,35.39,139.46,69.51,-111.88,94206,2016-03-24 12:39:27:580
2.4787,-15.3557,1.7994,2.5485,-9.462,-0.3827,-0.6023,-3.2406,2.5204,1.4568,-1.6283,0.6227,2.49,2.38,57.62,106.14,71.12,-109.62,94306,2016-03-24 12:39:27:680
3.7132,-9.0971,-0.6388,2.3461,-9.5204,0.1693,2.3046,-1.7851,-3.0212,1.4799,-2.1462,0.4575,13.43,5.3,59.57,73.03,76.12,-85.87,94405,2016-03-24 12:39:27:779
2.8097,-8.9009,0.9157,2.4849,-9.4596,0.7153,0.007,0.9454,-0.4202,1.1191,-2.1651,0.1439,33.95,13.43,50.71,46.11,75.47,-81.1,94505,2016-03-24 12:39:27:879
1.7139,-9.2548,0.6674,2.5103,-9.4245,1.0234,0.21,-0.1655,-0.854,1.0209,-2.0573,0.2212,41.69,17.43,36.27,17.59,73.95,-67.82,94606,2016-03-24 12:39:27:980
2.6986,-9.2015,1.1544,2.3971,-9.3938,1.4769,0.046,-0.1063,-1.1685,0.5715,-1.1849,0.4017,42.92,21.48,10.05,347.04,73.32,-62.71,94706,2016-03-24 12:39:28:080
3.8129,-9.9075,-0.4839,2.0788,-9.4465,1.6162,1.4813,0.1829,-0.7765,0.2424,-0.7965,0.5126,32.63,20.25,-4.01,323.08,73.74,-55.21,94806,2016-03-24 12:39:28:180
4.8469,-10.1586,-1.5272,2.0325,-9.4888,1.4149,3.1832,-1.1155,-1.8941,-0.2054,-1.1252,0.1887,25.74,19.04,-7.76,312.13,74.42,-52.14,94906,2016-03-24 12:39:28:280
2.8457,-10.2404,2.5915,2.7981,-9.3907,-0.3956,0.9025,-0.8943,0.9507,-1.399,-0.6018,-1.0369,2.13,19.09,-12.93,305.9,73.25,-98.05,95005,2016-03-24 12:39:28:379
2.7004,-11.748,-0.3156,3.527,-9.0857,-1.0864,-2.1083,-3.2047,1.0696,-0.832,-0.2919,-1.4853,-6.63,15.89,-10.77,267.34,73.25,-98.05,95105,2016-03-24 12:39:28:479
4.4895,-11.3381,-1.7983,5.8714,-7.4164,-2.5873,-1.4884,-4.0155,0.7309,-0.5157,-2.0953,-2.73,-15.82,8.24,-1.89,220.91,59.29,-109.42,95205,2016-03-24 12:39:28:579
1.7217,-7.6732,-4.0157,6.4389,-6.3545,-3.7857,-3.4131,-4.4414,1.1829,-0.9308,-2.0446,-2.1186,-14.84,2.82,4.16,193.92,49.14,-113.78,95306,2016-03-24 12:39:28:680
1.5056,-3.7321,-2.4767,6.0281,-5.2888,-5.6446,-3.8625,0.6157,2.9372,-0.757,-1.8823,-0.9109,-13.45,-0.07,9.63,180.48,34.34,-127.84,95406,2016-03-24 12:39:28:780
4.0679,-3.602,-4.5054,5.8304,-5.5143,-5.6364,-4.2072,2.2988,2.4863,7.0000E-04,-0.8254,0.1782,-10,-3.85,13.07,169.09,34.22,-134.03,95506,2016-03-24 12:39:28:880
4.1699,-5.9948,-3.8485,6.1102,-6.4589,-4.1375,-3.273,3.1857,-1.6379,0.5726,1.2292,0.8447,-8.95,-1.91,13.62,158.09,37.31,-131.43,95606,2016-03-24 12:39:28:980
3.7649,-9.6783,-3.4869,6.2567,-7.0802,-2.6259,1.5665,-4.4252,-0.5484,0.9413,2.9427,0.7753,-8.68,-2.8,12.2,146.42,46.22,-112.77,95707,2016-03-24 12:39:29:081
3.2649,-7.8487,-1.1667,5.2364,-8.2442,-0.8852,-1.7583,-0.2542,-0.2868,0.8195,0.8093,1.2598,-9.24,-1.04,9.14,145.25,51.61,-104.76,95805,2016-03-24 12:39:29:179
5.6291,-8.7126,-1.8179,4.4818,-8.7212,-0.1548,-0.1794,1.3911,0.4959,0.5382,1.1858,1.4728,-10.04,0.37,8.58,136.66,62.79,-91.98,95906,2016-03-24 12:39:29:280
5.4826,-7.9371,1.686,3.712,-9.0631,0.5015,2.7417,1.3647,0.1676,0.5628,-0.7197,0.5902,-11.57,4.07,6.54,135.18,67.55,-82.31,96005,2016-03-24 12:39:29:379
2.7862,-9.264,-0.2921,3.3208,-9.1442,1.2357,-1.2528,-0.7986,-1.4533,0.5269,0.0944,0.4333,-9.25,4.15,8.34,109.75,68.82,-69.59,96105,2016-03-24 12:39:29:479
3.9653,-8.7314,0.2789,2.997,-9.2384,1.3565,0.491,0.3327,-1.4897,0.2119,0.0994,0.5536,-8.66,4.3,8.54,103.62,70.4,-65.65,96206,2016-03-24 12:39:29:580
5.2307,-12.1627,0.5053,2.4825,-9.3831,1.4021,2.6748,-1.0457,-1.6408,0.0836,-0.336,0.478,-7.48,5.77,9.97,87.09,73.1,-60.54,96306,2016-03-24 12:39:29:680
3.6674,-13.7775,-1.1977,2.4209,-9.4355,1.1323,2.8014,-3.6007,-0.4671,-0.2499,-0.6057,0.2354,-5.83,6.9,10.15,81.5,73.1,-60.54,96405,2016-03-24 12:39:29:779
5.2664,-9.1025,-1.3901,3.6895,-9.0792,-0.3545,1.5954,0.2046,-0.9743,-1.7537,1.1277,-1.6204,-2.79,8.09,10.35,93.71,67.79,-95.49,96505,2016-03-24 12:39:29:879
5.1737,-10.7932,-5.404,5.0733,-8.3368,-0.9643,-0.273,-3.5394,0.4582,-0.9386,-0.3878,-2.5748,-0.43,8.7,9.64,75.81,67.79,-95.49,96605,2016-03-24 12:39:29:979
3.535,-5.2432,-2.116,7.0457,-6.2247,-2.7895,-2.147,-1.4524,1.4801,-1.0678,-1.4842,-2.1845,0.84,11.34,9.11,55.24,48.36,-105.77,96706,2016-03-24 12:39:30:080
1.2993,-3.8855,-1.452,6.9778,-5.4266,-4.2465,-4.2555,1.3436,2.1941,-0.9814,-2.4393,-1.0989,-0.04,13.82,10.02,44.2,33.6,-121.32,96806,2016-03-24 12:39:30:180
4.7292,-3.1704,-3.6169,6.4397,-5.2942,-5.1645,-3.3597,2.623,2.2492,0.4651,0.0799,0.1067,0.54,15.91,10.22,38.21,31.76,-128.39,96906,2016-03-24 12:39:30:280
5.2123,-4.8371,-9.0575,6.4973,-5.7282,-4.5981,-1.2253,2.2287,0.635,1.0181,0.7211,0.5215,-0.01,16.68,10.92,41.67,35.74,-125.29,97006,2016-03-24 12:39:30:380
2.5917,-8.1381,-3.1591,6.5012,-6.951,-2.3641,3.7257,-3.1619,-2.9144,1.1617,1.7398,1.1632,1.8,17.79,8.29,32.66,40,-118.79,97105,2016-03-24 12:39:30:479
4.7195,-8.7533,-1.6739,5.9754,-7.6666,-1.2992,-2.2623,-1.2139,-1.9533,0.9128,1.4541,1.4568,3.11,18.2,7.2,30.32,45.14,-109.98,97205,2016-03-24 12:39:30:579
4.4244,-8.627,-1.7336,4.4638,-8.7305,0.1519,0.4596,-0.5457,-1.1061,0.7323,0.9665,1.4492,5.85,20.64,4.1,15.83,57.34,-95.42,97305,2016-03-24 12:39:30:679
3.3205,-7.7807,2.0368,3.714,-9.0611,0.5223,0.5158,0.356,-1.5974,1.5466,0.0195,0.5536,8.47,20.34,3.38,6.89,67.51,-81.99,97406,2016-03-24 12:39:30:780
2.0476,-8.8255,-0.7599,2.9109,-9.2001,1.748,-0.2013,0.7067,-3.0241,1.5466,0.0195,0.5536,8.47,20.34,3.38,6.89,67.51,-81.99,97506,2016-03-24 12:39:30:880
5.8507,-8.7322,-0.5064,2.2807,-9.2902,2.1587,3.9419,0.0714,-2.4524,0.2077,0.3027,0.5946,9.08,21.23,-0.09,337.62,70.47,-51.36,97606,2016-03-24 12:39:30:980
5.9565,-12.2714,0.3419,1.9535,-9.3602,2.1773,1.6386,-3.2886,-2.0666,0.2755,-0.2829,0.556,10.62,21.68,0.17,332.64,71.32,-46.57,97706,2016-03-24 12:39:31:080
1.7899,-11.0326,-1.1852,2.5542,-9.4021,1.1166,2.3742,-0.3852,-2.164,-0.9462,-0.0689,-0.5917,12.55,21.19,-3.65,330.77,73.49,-66.39,97806,2016-03-24 12:39:31:180
3.2013,-11.6309,-3.9171,3.6702,-9.088,0.33,-0.3931,-1.8611,-1.7327,-1.5374,0.5127,-1.7293,11.83,24.44,-3.42,335.01,73.49,-66.39,97906,2016-03-24 12:39:31:280
3.1529,-8.0589,-1.9762,5.6825,-7.8728,-1.3778,-2.3017,-0.2721,-0.6503,-1.0936,-1.0986,-1.8941,5.72,29.64,-3.2,353.14,60.47,-95.31,98005,2016-03-24 12:39:31:379
3.1149,-5.6696,-2.0736,6.3488,-7.0712,-2.4211,-2.0343,-0.1088,-0.1936,-1.4795,-0.509,-1.6086,1.11,31.49,-0.92,357.83,53.4,-103.63,98105,2016-03-24 12:39:31:479
2.5981,-3.6457,-1.9262,6.0251,-5.9485,-4.9482,-3.4436,1.6995,3.6384,-1.033,-2.0621,-0.5241,-5.78,32.41,6.56,8.89,40.28,-120.83,98205,2016-03-24 12:39:31:579
5.2606,-3.2248,-2.7266,5.7589,-6.0348,-5.1563,-3.8509,3.0818,1.9879,-0.0317,-0.7814,0.085,-6.21,33.3,9.5,7.86,37.98,-131.84,98305,2016-03-24 12:39:31:679
5.8761,-16.2497,-6.2915,5.5304,-7.6515,-2.6534,-1.0476,-4.5909,-2.6232,1.6009,2.1404,1.4234,-6.56,34.65,6.85,5.13,43.29,-125.19,98406,2016-03-24 12:39:31:780
2.9843,-7.1633,0.28,4.8539,-8.3146,-1.8648,3.7087,-3.853,-3.0145,0.9389,1.0508,1.5838,-4.03,36.42,2.58,2.98,51.28,-115.63,98506,2016-03-24 12:39:31:880
5.0297,-9.7999,-0.5743,3.5074,-9.1391,-0.5874,0.7079,-0.4113,1.8487,0.9323,0.85,1.1417,3.09,37.39,-3.29,354.46,63.72,-108.13,98606,2016-03-24 12:39:31:980
2.3088,-7.3739,-0.1876,3.1549,-9.2851,-0.0613,2.6254,-0.129,-2.1559,0.9517,-0.2668,0.3205,6.1,36.11,-4.48,351.25,68.74,-99.51,98706,2016-03-24 12:39:32:080
1.5847,-9.1777,-1.2921,2.6462,-9.3949,0.9504,-0.6985,-0.1322,-2.1589,0.9021,-0.1122,0.6633,7.36,34.63,-6.97,327.55,73.34,-70.24,98805,2016-03-24 12:39:32:179
3.942,-10.0523,0.7906,1.6833,-9.5429,1.5063,2.375,-0.6827,-0.7451,0.5355,0.0732,0.8754,9.5,33.2,-10.08,300.64,76.68,-48.18,98906,2016-03-24 12:39:32:280
6.2734,-14.2641,-1.4211,1.3926,-9.5824,1.552,3.7661,-3.6258,-3.0571,-0.0224,-0.2031,0.4161,11.66,32.91,-11.58,296.68,76.68,-48.18,99006,2016-03-24 12:39:32:380
3.1696,-10.0326,-0.9283,2.2752,-9.5314,0.3813,0.5287,-1.4655,-1.1355,-1.6286,0.7836,-1.4333,9.7,33.71,-10.97,321.68,76.39,-80.49,99106,2016-03-24 12:39:32:480
4.4592,-13.8985,1.8398,3.4975,-9.1481,-0.5007,0.7639,-1.0048,-2.2528,-1.7468,0.8942,-2.1418,5.93,38.06,-9.39,323.31,76.39,-80.49,99206,2016-03-24 12:39:32:580
5.7812,-8.7431,-0.5792,5.8169,-7.6363,-2.0054,-3.1179,-2.3741,-1.6086,-1.0883,-0.6956,-2.5523,-6.9,38.06,-3.41,345.26,51.14,-109.02,99305,2016-03-24 12:39:32:679
2.4216,-4.5397,-1.6604,6.5106,-6.6552,-3.0806,-2.1682,-1.2307,1.7391,-1.0442,-2.1272,-1.6514,-12.55,37.59,0.92,346.78,51.14,-109.02,99405,2016-03-24 12:39:32:779
2.7653,-2.9788,-2.3845,6.1082,-5.9063,-4.8965,-4.2258,2.0016,3.5466,0.4796,-0.309,0.107,-16.17,33.64,10.39,352.08,37.03,-128.72,99505,2016-03-24 12:39:32:879
5.6044,-4.9463,-5.0061,5.9756,-6.3988,-4.4179,-1.9589,3.0121,1.2346,0.4796,-0.309,0.107,-16.17,33.64,10.39,352.08,37.03,-128.72,99605,2016-03-24 12:39:32:979
3.4873,-6.722,-2.5134,5.2327,-8.0762,-1.8878,2.3321,-1.7424,-1.8226,1.5893,2.293,1.7032,-14.65,36.13,4.45,343.34,48.4,-119.04,99706,2016-03-24 12:39:33:080
5.0799,-11.5236,-1.047,4.4633,-8.6747,-0.999,-1.4181,0.0305,-0.0693,1.1312,1.1936,1.2807,-11.73,38.11,-0.84,338.21,55.44,-109.84,99806,2016-03-24 12:39:33:180
5.6138,-7.7435,1.2452,2.7551,-9.408,-0.263,1.1716,1.0084,-0.5939,0.3707,0.2868,1.4202,-5.29,39.74,-6.68,324.88,68.65,-97.66,99906,2016-03-24 12:39:33:280
1.0573,-8.5456,-0.6331,2.3802,-9.51,0.2534,3.0826,2.044,1.4132,0.4402,0.0401,1.0217,-2.37,39.08,-7.64,320.31,73.61,-95.45,100005,2016-03-24 12:39:33:379
5.2646,-8.2149,-0.8741,1.4571,-9.5803,1.5049,-0.9672,0.2724,-2.1021,1.002,0.0012,0.8834,1.37,39.19,-11.55,273.71,77.67,-44.08,100105,2016-03-24 12:39:33:479
3.969,-13.4349,-0.7718,0.8927,-9.6257,1.6489,4.4908,-1.1348,-2.7894,0.0603,0.1104,0.3668,4.25,37.15,-13.55,258.13,78.24,-30.79,100205,2016-03-24 12:39:33:579
3.0583,-11.1904,-1.4458,1.055,-9.6635,1.2942,2.4796,-5.1537,-1.4096,-0.4665,0.2306,-0.1292,4.31,38.03,-13.15,265.11,80.2,-39.19,100306,2016-03-24 12:39:33:680
4.3504,-11.4497,-1.4707,3.1093,-9.293,-0.3771,1.8666,-3.1656,0.041,-1.8104,1.1983,-1.974,1.87,40.4,-11.15,301.61,78.98,-75.61,100406,2016-03-24 12:39:33:780
7.9307,-9.4734,1.5945,4.2295,-8.7617,-1.2307,-2.501,-3.1342,-2.4804,-1.3869,-0.0244,-2.0485,-3.49,41.53,-8.08,335.02,63.31,-106.22,100506,2016-03-24 12:39:33:880
1.5246,-4.4229,-1.2789,5.8712,-7.1102,-3.3385,-4.8995,1.6236,1.2081,-1.3602,-1.3955,-1.7593,-13.32,37.52,-1.73,336.41,46.47,-119.62,100605,2016-03-24 12:39:33:979
2.709,-2.0754,-1.5791,5.5812,-6.6119,-4.6157,-3.5554,2.7668,3.671,-1.0184,-2.171,-0.6477,-16.58,34,2.74,333.51,46.47,-119.62,100705,2016-03-24 12:39:34:079
5.6509,-3.6881,-0.147,5.2529,-7.1189,-4.2308,-1.2776,4.621,2.0459,1.3336,1.1895,0.5909,-17.7,34.7,9.89,339.45,46.55,-128.85,100805,2016-03-24 12:39:34:179
4.4244,-7.0161,-3.6224,5.1434,-7.8634,-2.8077,-1.1592,-0.7181,-1.9084,1.5714,1.97,1.0954,-16.92,36.05,4.84,333.77,53.31,-118.63,100905,2016-03-24 12:39:34:279
4.0259,-10.8441,-0.0982,3.8955,-8.933,-1.0943,-1.9337,2.0943,-1.0355,0.8215,0.811,1.5633,-12.65,40.07,-2.74,312.38,65.63,-105.69,101005,2016-03-24 12:39:34:379
3.3997,-8.9153,-0.4778,3.0201,-9.3142,-0.5429,1.4214,-1.8513,0.4101,0.7092,0.3983,1.4707,-8.35,40.88,-5.94,310.98,71.77,-100.19,101105,2016-03-24 12:39:34:479
3.5945,-7.071,-0.3319,2.0232,-9.5902,0.3237,0.9789,2.1326,-0.9026,0.7624,-0.1389,0.4158,-2.9,40.66,-9.3,308.86,76.1,-92.72,101205,2016-03-24 12:39:34:579
3.7383,-8.9744,-0.6761,1.7664,-9.6083,0.8546,0.4306,1.1556,-0.7981,0.9808,-0.0997,0.5326,-2.3,40.4,-10.03,297.05,77.94,-80.91,101305,2016-03-24 12:39:34:679
3.2007,-10.3096,-0.362,0.8889,-9.6204,1.6817,3.2617,0.8025,-2.4806,0.5408,-0.6857,0.7949,-0.51,38.5,-14.44,250.7,78.88,-44.38,101406,2016-03-24 12:39:34:780
5.6502,-12.3377,-0.0742,0.471,-9.5984,1.9542,4.5293,-3.1164,-1.7382,0.2125,-1.3563,0.1485,1.31,38.42,-15.62,216.36,78.56,-15.94,101506,2016-03-24 12:39:34:880
4.0614,-11.8304,-1.9188,0.7421,-9.6681,1.4655,3.2984,-4.5757,-2.1463,-1.451,-0.5272,-0.5124,-1.41,39.43,-16.31,200.42,78.17,-13.55,101605,2016-03-24 12:39:34:979
8.3265,-8.8665,3.9797,2.6056,-9.426,-0.7291,3.7152,0.7778,0.6332,-1.9817,-1.1017,-1.4894,-3.85,39.94,-11.33,311.1,73.98,-105.63,101705,2016-03-24 12:39:35:079
4.668,-8.9987,-0.5851,3.9276,-8.9009,-1.2319,3.269,-0.7151,4.6794,-0.6273,-1.0493,-2.3075,-9.59,39.54,-6.67,290.85,73.98,-105.63,101805,2016-03-24 12:39:35:179
5.4712,-7.7299,0.4593,6.041,-7.4232,-2.1385,-0.5849,-0.3233,2.4846,0.6667,-2.0006,-2.4391,-21.81,33.68,-0.35,311.61,49.2,-109.49,101906,2016-03-24 12:39:35:280
3.937,-7.0981,-1.1313,6.7168,-6.5972,-2.7445,-1.564,-0.9322,1.6427,0.9519,-2.2012,-2.3542,-26.81,26.56,1.34,287.39,42.28,-112.23,102006,2016-03-24 12:39:35:380
2.9677,-5.0058,-2.0033,6.9584,-5.7275,-3.866,-3.791,0.3827,1.8054,1.2077,-2.1826,-1.3774,-29.87,11.85,11.47,199.41,37.58,-116.38,102106,2016-03-24 12:39:35:480
4.1052,-5.2668,-3.6585,6.9246,-5.8735,-3.7044,-3.9192,0.673,1.0473,1.5613,-1.1642,-0.7001,-28.98,8.07,15.53,180.44,35.74,-119.06,102205,2016-03-24 12:39:35:579
4.4698,-12.1705,-6.9703,6.4339,-6.859,-2.7803,0.1068,-2.1092,-2.8814,1.6901,-0.5043,0.5094,-28.02,8.59,18.75,159.36,44.38,-113.37,102306,2016-03-24 12:39:35:680
6.3329,-11.4149,-2.9224,5.9422,-7.4301,-2.3779,-1.7962,-3.5744,-1.5514,1.153,-0.3193,0.7852,-28,12.54,17.93,158.82,49.26,-111.81,102405,2016-03-24 12:39:35:779
4.8602,-5.822,-0.6538,4.7973,-8.3386,-1.9037,-0.2122,-0.7826,1.0218,0.7304,-0.5697,0.9399,-27.53,18.39,18.15,158.71,53.91,-112.06,102505,2016-03-24 12:39:35:879
5.2546,-8.2965,-2.8707,4.4218,-8.6331,-1.4447,0.4918,2.294,0.6249,1.1227,-0.5942,0.6441,-24.66,21.14,20.09,145.6,61.68,-108.09,102606,2016-03-24 12:39:35:980
4.2631,-8.0568,-0.838,3.6548,-9.0571,-0.8847,0.5919,0.195,-0.5428,0.9738,-1.3383,0.5882,-21.69,25.93,19.18,136.3,67.45,-103.61,102706,2016-03-24 12:39:36:080
4.1123,-8.1216,-0.4126,3.2833,-9.2359,-0.2979,0.8232,0.7445,0.0855,1.0394,-1.5243,0.222,-16.28,28.99,20.16,114.54,69.3,-99.97,102806,2016-03-24 12:39:36:180
3.5116,-8.9591,0.4888,3.194,-9.2709,-0.14,0.2163,0.2571,-0.3346,0.8065,-1.6882,0.1548,-13.9,29.52,21.01,103.82,70.36,-95.19,102906,2016-03-24 12:39:36:280
2.5667,-9.8416,0.1998,3.1673,-9.2804,-0.1142,-0.4994,-0.6021,0.6115,0.4347,-1.6117,0.0105,-11.08,31.54,23.94,91.54,71.1,-91.52,103007,2016-03-24 12:39:36:381
1.3953,-9.3327,-1.1948,3.2256,-9.2574,-0.2569,-0.0538,-0.4204,0.6891,0.2954,-1.6248,-0.1788,-8.55,30.58,25.33,90.27,70.73,-94.55,103105,2016-03-24 12:39:36:479
4.4015,-9.7912,-4.8031,3.2241,-9.1011,-1.7161,0.0771,-0.9202,-1.0889,-1.2652,-1.976,-0.3242,-2.83,30.51,28.39,85.26,70.1,-102.23,103205,2016-03-24 12:39:36:579
3.1725,-8.9651,-0.8677,3.535,-8.6594,-2.9476,1.1731,-0.674,-1.4381,-1.7862,-0.515,-1.1363,1.46,26.58,31.2,99.7,62.01,-129.82,103305,2016-03-24 12:39:36:679
2.8071,-7.4301,-2.2127,4.8615,-7.7529,-3.5255,-1.7709,-1.7568,1.8917,0.6074,-0.3109,-1.2568,0.81,20.43,34.11,102.8,55.55,-129.97,103405,2016-03-24 12:39:36:779
2.3227,-5.8143,-3.9583,5.2223,-7.6354,-3.2554,-3.6098,0.0477,-0.6036,0.6558,-0.0141,-0.6179,0.79,22.32,32.75,88.25,51.13,-121.94,103505,2016-03-24 12:39:36:879
2.6277,-5.7981,-2.4341,5.1832,-7.7506,-3.0385,-2.1736,1.871,0.3743,0.5457,-0.1231,0.1631,1.43,24.57,30.61,82.46,52.22,-120.38,103606,2016-03-24 12:39:36:980
5.1021,-7.0873,-2.9624,5.0031,-8.0052,-2.6564,-1.7922,1.5241,0.3457,0.5457,-0.1231,0.1631,1.43,24.57,30.61,82.46,52.22,-120.38,103706,2016-03-24 12:39:37:080
2.7584,-8.3894,-3.0381,4.6032,-8.4524,-1.8808,0.1753,0.6795,-1.3329,0.9194,-0.4889,0.3337,1.31,27.56,29.36,78.61,57.58,-115.14,103806,2016-03-24 12:39:37:180
3.3372,-7.3745,-0.4661,4.3929,-8.6185,-1.6105,-2.2572,-0.4996,-2.3137,0.8615,-0.2786,0.1109,1.84,29.23,27.23,74.3,61.5,-110.13,103906,2016-03-24 12:39:37:280
3.9063,-12.1395,1.377,3.8936,-8.9645,-0.8052,1.2265,-3.3009,-1.2256,0.9939,-0.0395,0.5092,2.24,35.41,26,68.23,64.28,-106.73,104006,2016-03-24 12:39:37:380
1.2016,-8.4404,2.0161,3.9847,-8.9281,-0.7621,-0.5444,-1.534,1.0706,-0.2275,-0.2601,-0.2057,3.61,36.78,23.55,58.72,65.56,-100.83,104106,2016-03-24 12:39:37:480
3.4,-8.2065,0.9429,3.8588,-9.0044,-0.447,-1.9307,-0.1074,1.4306,0.5927,0.2153,0.1125,3.71,36.76,24.3,58.72,65.56,-100.83,104205,2016-03-24 12:39:37:579
2.5672,-9.1086,-0.5988,3.5955,-9.1216,-0.1987,-0.6438,-0.0867,-0.1086,0.352,-0.3029,0.1937,2.45,37.03,21.72,57.3,67.46,-95.19,104305,2016-03-24 12:39:37:679
5.2974,-8.3223,-1.076,3.438,-9.1839,-0.0772,0.3335,0.7584,-0.783,0.3447,-0.2803,0.2889,3.92,37.61,20.21,50.34,69.47,-91.29,104405,2016-03-24 12:39:37:779
3.1475,-6.9537,-2.2199,3.4382,-9.1743,-0.4272,-0.1559,1.678,-0.8922,-0.4025,-0.142,-0.0763,4.99,37.93,18.21,49.13,69.31,-97.08,104505,2016-03-24 12:39:37:879
4.2591,-7.2069,-1.2151,3.7203,-9.0329,-0.8583,-0.5924,2.3393,0.075,-0.9383,0.4868,-0.3927,4.52,37.74,19.41,51.99,67.09,-102.99,104606,2016-03-24 12:39:37:980
9.6922,-11.1297,-4.2464,4.8969,-8.0722,-2.6515,1.2085,1.4205,-1.1226,-2.1708,-0.208,-1.4479,0.85,34.91,24.68,69.35,64.03,-108.49,104706,2016-03-24 12:39:38:080
2.2029,-11.1538,-0.8449,5.548,-6.9754,-4.0907,3.1656,-6.8139,1.6358,-2.2667,-1.2489,-1.9264,-2.86,30.16,28.65,71.71,45.34,-126.4,104806,2016-03-24 12:39:38:180
2.103,-5.1825,-2.874,5.2176,-6.9678,-4.5163,-3.0159,-1.398,2.164,0.4213,0.0567,0.6221,-3.61,23.42,33,93.36,45.28,-130.88,104906,2016-03-24 12:39:38:280
4.1543,-7.4486,-3.23,4.7845,-7.624,-3.8927,-2.54,1.9915,1.0113,1.0884,0.4785,1.1629,-3.44,24.58,32.56,95.49,51.03,-129.13,105005,2016-03-24 12:39:38:379
3.5886,-7.1294,-3.6575,4.0897,-8.6165,-2.2806,-0.1692,1.7142,-1.2249,1.2132,0.269,0.4996,-4.4,31.98,28.08,89.42,61.48,-119.15,105105,2016-03-24 12:39:38:479
3.1656,-7.0831,-2.7571,3.9876,-8.7681,-1.8414,-0.3761,0.5605,-2.868,0.6396,0.1938,0.1676,-3.79,34.9,25.96,83.09,61.48,-119.15,105205,2016-03-24 12:39:38:579
5.142,-8.8126,1.6997,3.8872,-8.9497,-0.9814,2.5392,-5.3264,-0.9132,0.481,-0.3597,0.1199,-4.8,38.84,21.42,70.36,65.87,-104.17,105306,2016-03-24 12:39:38:680
3.0739,-7.1701,0.6264,3.8021,-9.0393,-0.0685,0.5204,-2.0871,-1.0703,0.4897,0.3912,0.0382,-6.24,39.17,18.27,62.55,67.18,-91.03,105408,2016-03-24 12:39:38:782
1.6734,-8.2679,-0.2332,3.6499,-9.0992,0.23,-1.4986,0.2844,-0.2087,0.2088,0.6493,0.3466,-5.05,39.14,16.59,57.74,68.1,-86.39,105506,2016-03-24 12:39:38:880
6.4023,-6.5298,-3.8862,3.1954,-9.2702,0.1492,1.8373,2.5097,-1.8591,-1.0617,-0.1742,-0.1818,-4.19,40.81,13.97,54.22,70.96,-87.33,105608,2016-03-24 12:39:38:982
9.5436,-6.6051,-1.7827,3.4207,-9.1746,-0.5432,0.014,2.796,-3.8862,-1.1464,0.7351,-0.4278,-6.02,40.31,16.84,64.78,70.96,-87.33,105706,2016-03-24 12:39:39:080
5.0877,-13.3485,-1.6451,5.4378,-7.6136,-2.9384,-0.1676,-6.526,1.9695,-2.6692,0.0985,-2.2464,-7.46,37.2,17.27,43.47,50.93,-118.39,105806,2016-03-24 12:39:39:180
1.0528,-7.5857,-0.4051,5.7701,-6.7346,-4.1858,-0.2139,-4.2311,3.0721,-2.5405,-1.2122,-2.493,-10.43,33.36,20.96,48.16,43.37,-125.96,105905,2016-03-24 12:39:39:279
1.9085,-5.1963,-2.7122,5.1568,-7.5757,-3.4908,-3.5117,1.9826,0.7229,1.0563,0.4475,0.6275,-12.44,23.96,28.46,95.66,44.28,-127.98,106005,2016-03-24 12:39:39:379
5.4522,-7.2057,-2.8891,4.4597,-8.3645,-2.5135,-0.3208,2.9987,0.4048,1.687,0.6602,1.5799,-12.6,26.31,25.36,113.07,58.53,-119.41,106105,2016-03-24 12:39:39:479
5.6014,-6.8438,-3.1414,3.7801,-8.9843,-1.0789,1.6036,0.0163,-4.2407,1.4301,-0.0213,0.457,-12.91,32.72,19.25,101.54,66.37,-105.93,106205,2016-03-24 12:39:39:579
6.0636,-12.1924,-1.5736,3.7509,-9.0104,-0.9559,1.048,-0.9283,-1.7177,0.4286,-0.1256,-0.0255,-10.73,32.53,16.43,92.25,66.37,-105.93,106306,2016-03-24 12:39:39:680
0.8596,-8.8443,2.9344,3.7023,-9.0575,-0.6524,3.7926,-6.3183,-1.3016,0.318,0.0849,-2.0000E-04,-12.54,32.38,13.81,98.88,67.46,-99.99,106406,2016-03-24 12:39:39:780
3.6631,-6.9146,-2.271,3.4373,-9.1811,-0.2484,-2.5416,0.2182,2.9564,0.4254,0.0991,0.3206,-12.11,32.45,12.57,93.9,67.46,-99.99,106506,2016-03-24 12:39:39:880
2.2538,-6.0052,-1.2341,3.0506,-9.3192,-0.1277,0.5897,3.0789,-1.8485,-0.1396,-0.1916,0.208,-11.01,33.19,9.9,88.22,71.46,-88.48,106605,2016-03-24 12:39:39:979
5.3992,-9.1303,-5.0237,3.6772,-9.0665,-0.6687,3.1555,1.112,-2.4003,-0.4734,0.0144,-0.6348,-11.56,30.51,10.73,101.69,70.63,-95.72,106706,2016-03-24 12:39:40:080
4.9833,-12.8298,-3.8114,4.5445,-8.4571,-1.9987,0.7241,-1.3217,-3.3952,-2.0626,-0.3974,-1.5864,-12.47,28.12,11.47,103.38,67.6,-100.31,106806,2016-03-24 12:39:40:180
1.3407,-7.3614,-1.0251,5.4237,-7.0347,-4.1554,-3.2743,-3.4227,3.3977,-0.7368,-0.9709,-0.8073,-14.7,19.9,18.25,115.46,45.83,-127.46,106906,2016-03-24 12:39:40:280
1.7458,-5.395,-0.795,5.1507,-7.4314,-3.7967,-3.2596,1.3229,2.7168,0.7501,0.2251,0.7451,-14.65,17.08,19.68,134.4,49.27,-126.39,107006,2016-03-24 12:39:40:380
5.0746,-6.7276,-4.2585,3.8184,-8.8238,-1.9316,0.8048,1.1482,-0.9957,1.5709,0.1543,1.1514,-12.96,21.85,15.41,132.67,64.13,-116.83,107106,2016-03-24 12:39:40:480
5.8006,-7.3942,-2.533,3.525,-9.0413,-1.4139,1.4005,1.8651,-2.8381,0.7238,0.0719,0.4567,-10.65,22.86,14.41,120.77,64.13,-116.83,107206,2016-03-24 12:39:40:580
5.4688,-9.8005,0.3811,3.6054,-9.086,-0.7855,0.4994,0.6118,-2.0591,0.4094,0.1001,0.1095,-11.37,23.58,10.65,110.22,67.9,-102.29,107306,2016-03-24 12:39:40:680
4.0703,-6.9158,0.6605,3.5325,-9.1257,-0.6429,3.4983,-6.49,-0.7268,0.5667,-0.9281,0.049,-12.71,22.61,10.66,122.03,68.52,-100.31,107405,2016-03-24 12:39:40:779
0.9053,-6.9266,2.1073,3.5286,-9.1455,-0.2807,-1.0417,-0.4396,1.1768,0.2117,0.1473,0.0676,-10.39,23.87,10.13,101.53,68.64,-97.77,107505,2016-03-24 12:39:40:879
2.7104,-8.9106,-0.3613,3.3438,-9.2188,-0.0499,-0.3226,-0.2111,0.2516,0.4413,0.0986,0.4515,-8.67,23.32,9.06,95.06,68.84,-94.55,107605,2016-03-24 12:39:40:979
3.5461,-6.0558,-1.385,2.8987,-9.368,0.0977,2.7867,2.2269,-2.8049,-0.4226,-0.3237,0.0891,-8.45,23.62,7.58,87.6,71.96,-86.14,107706,2016-03-24 12:39:41:080
4.5273,-6.7314,-1.1754,3.0618,-9.3123,-0.2772,0.0479,3.3913,-0.7478,-0.8614,0.7811,-0.511,-7.3,23.75,6.75,84.94,72.8,-88.07,107806,2016-03-24 12:39:41:180
5.5144,-11.6985,-3.764,4.5409,-8.5282,-1.6791,0.722,1.9771,-1.0834,-0.9038,0.4311,-0.9636,-7.44,22.22,9.22,88.36,68.25,-100.68,107906,2016-03-24 12:39:41:280
3.4543,-13.4585,-0.9218,5.6701,-6.8164,-4.19,0.1326,-8.6163,3.162,-2.2403,-1.1369,-1.7677,-8.22,18.41,10.69,68.05,49.54,-120.12,108006,2016-03-24 12:39:41:380
1.1368,-3.6143,-1.2094,5.32,-7.072,-4.2255,-3.9466,-2.421,2.1628,-0.301,-1.0739,-0.1789,-7.21,15.62,14.46,82.65,46.15,-128.46,108106,2016-03-24 12:39:41:480
5.32,-7.104,-3.6796,4.0363,-8.5898,-2.4688,2.1099,0.8092,-1.2929,1.4702,0.7803,1.752,-6.89,17.19,12.6,93.88,53.03,-126.29,108206,2016-03-24 12:39:41:580
5.1145,-7.2521,-4.5099,3.5277,-9.0021,-1.6396,2.329,1.996,-2.3736,1.625,0.3187,1.2597,-4.84,19.97,9.65,90.8,66.63,-114.93,108305,2016-03-24 12:39:41:679
2.5454,-10.1218,-1.6342,3.4392,-9.1553,-0.7226,-0.4176,-0.4208,-1.1522,0.6872,0.1103,-0.0936,-2.28,19.33,5.78,54.96,69,-101.87,108405,2016-03-24 12:39:41:779
6.4131,-16.9687,0.6763,3.3611,-9.2021,-0.442,1.3259,-5.8314,-0.891,0.8775,-0.6003,0.1465,-1.53,19.68,4.61,46.6,69.78,-97.49,108505,2016-03-24 12:39:41:879
1.5787,-8.5444,-0.4981,3.0948,-9.3055,0.0098,-1.6273,0.8276,1.3463,0.4409,-0.032,0.2944,-0.07,20.55,4.04,31.07,71.6,-89.82,108605,2016-03-24 12:39:41:979
4.1031,-6.9275,0.4513,2.8156,-9.3907,0.2406,-0.3143,0.2691,-1.332,0.4552,0.025,0.4537,0.26,19.34,3.07,27.59,73.25,-85.12,108705,2016-03-24 12:39:42:079
2.4875,-7.939,-2.5859,2.5358,-9.4595,0.5076,2.3367,2.2639,-2.254,0.0839,-0.008,0.177,1.99,21.61,3.17,16.86,74.36,-78.55,108806,2016-03-24 12:39:42:180
3.9753,-7.6362,-2.8072,2.6706,-9.4345,0.1679,-0.0325,2.4561,-2.3854,-0.527,0.1307,-0.2017,2.49,21.54,2.72,17.15,74.71,-78.68,108906,2016-03-24 12:39:42:280
6.562,-9.7973,-2.8908,4.4565,-8.5515,-1.7836,1.2743,-0.7779,-1.6071,-2.4698,0.0486,-2.0486,4,22.04,4.57,27.55,70.42,-97.46,109006,2016-03-24 12:39:42:380
3.1057,-8.5981,-1.4579,5.3249,-7.6452,-3.0605,-0.2947,-6.3756,4.3385,-2.1154,-0.7254,-1.8534,1.7,22.23,6.86,29.65,51.22,-119.89,109106,2016-03-24 12:39:42:480
1.0581,-6.6337,-2.273,5.1869,-7.7333,-3.0761,-3.1624,0.428,1.478,0.873,0.2316,0.8285,0.54,21.75,9.57,38.63,48.38,-122.45,109205,2016-03-24 12:39:42:579
5.1392,-5.7733,-2.3939,4.4479,-8.4208,-2.3404,-2.6684,1.3646,-0.8734,1.2157,0.3402,1.5598,1.55,22.28,6.87,35.48,59.17,-117.75,109305,2016-03-24 12:39:42:679
5.586,-8.3739,-4.4758,3.8467,-8.9177,-1.3594,0.8993,1.9355,-1.7984,0.1595,1.1908,0.1188,5.17,23.36,3.1,20.2,64.21,-114.18,109406,2016-03-24 12:39:42:780
8.4676,-15.824,5.3369,4.0587,-8.9119,-0.5244,1.2463,1.8642,-2.8204,1.0507,0.979,0.15,5.4,22.88,2.93,17.44,64.8,-105.39,109506,2016-03-24 12:39:42:880
-1.0762,-16.7288,1.0404,4.0356,-8.9374,0.0841,3.2497,-7.3148,4.2156,0.1111,0.565,-0.0486,5.25,22.92,-1.35,358.59,65.33,-97.36,109606,2016-03-24 12:39:42:980
4.6485,-9.104,3.0924,3.6147,-9.0964,0.5997,-0.187,-0.0454,2.1795,-0.2243,1.7983,0.29,6.92,24.16,-0.8,352.03,68.06,-80.58,109706,2016-03-24 12:39:43:080
3.3665,-7.4831,0.6845,3.2776,-9.1976,0.912,-0.6316,0.3458,0.537,-0.2174,2.1597,0.4977,9.5,24.9,-0.48,355.21,68.06,-80.58,109806,2016-03-24 12:39:43:180
5.4203,-8.9358,1.5584,2.6257,-9.3593,1.2956,1.3539,0.285,-0.4312,-0.1439,1.7624,0.4025,10.17,24.78,0.69,354.54,69.7,-74.45,109906,2016-03-24 12:39:43:280
4.3509,-9.6454,-0.7724,2.5116,-9.3923,1.283,3.7007,0.9015,0.5227,-0.4483,1.7294,0.1916,10.7,23.93,0.24,342.92,73.29,-62.94,110006,2016-03-24 12:39:43:380
4.0284,-10.7719,-2.9695,2.8039,-9.3687,0.7324,1.6394,0.1638,-0.3587,-0.8102,1.2087,-0.2297,11.05,25.98,3.13,354.81,73.81,-66.46,110106,2016-03-24 12:39:43:480
-2.5157,-12.5033,-0.8907,3.4565,-9.1757,-0.1723,0.2949,-1.714,-2.2136,-0.9166,0.0577,-0.8488,11.03,26.29,6.38,18.83,69.33,-92.85,110206,2016-03-24 12:39:43:580
3.0945,-8.759,-1.3431,5.2166,-8.1852,-1.3999,-5.2502,-3.2484,-1.0512,-1.984,1.9972,-1.3671,5.39,27.06,15.47,45.23,56.58,-105.02,110306,2016-03-24 12:39:43:680
1.6392,-6.5065,-1.7381,5.9315,-7.6248,-1.6884,-0.6109,-1.442,0.8934,-1.2847,0.9806,-1.5759,1.4,24.77,19.37,56.18,51.03,-105.89,110406,2016-03-24 12:39:43:780
6.8591,-6.328,-0.7354,5.9112,-7.5756,-1.9591,-3.3348,2.3367,0.6515,-0.8358,0.7906,0.3989,-3.84,21.49,24.82,78.11,49.47,-108.55,110506,2016-03-24 12:39:43:880
11.6304,-6.0215,-5.5038,5.8862,-7.7034,-1.4769,3.2351,1.1207,-1.306,-0.188,1.5364,0.6113,-5.78,21.62,24.88,80.91,50.58,-108.34,110606,2016-03-24 12:39:43:980
3.9535,-13.9622,-5.586,5.9725,-7.7235,-0.9208,-0.0741,-2.9474,-3.6546,-0.1392,0.8997,0.0986,-10.66,18.96,23.2,89.79,51.38,-100.71,110705,2016-03-24 12:39:44:079
4.0029,-8.7723,4.1973,5.1355,-8.3542,0.0568,-5.8766,0.8541,2.3203,-0.1264,1.8841,0.9862,-18.89,17.05,19.51,111.18,54.18,-95.67,110805,2016-03-24 12:39:44:179
3.0339,-9.876,-2.5175,4.5,-8.6909,0.6242,1.4966,-1.4089,0.7979,0.1716,1.582,1.1114,-20.16,17.96,14.94,116.14,58.42,-89.37,110905,2016-03-24 12:39:44:279
5.2674,-8.0038,1.7773,3.7983,-8.9709,1.1255,-0.9826,-0.6527,0.6392,-0.1263,1.3461,0.2705,-22.39,20.79,8.27,126.3,64.97,-78,111005,2016-03-24 12:39:44:379
3.0988,-9.082,-0.9308,3.6105,-9.0095,1.4014,1.2832,0.8251,-0.4438,-0.1992,1.6157,0.1448,-22.83,21.1,5.01,126.89,66.74,-68.79,111105,2016-03-24 12:39:44:479
5.3273,-7.4258,0.02,3.0816,-9.1887,1.4974,1.6529,0.4752,-1.3159,-0.3538,1.0128,0.234,-22.94,22.16,-1.95,147.59,68.23,-65.65,111205,2016-03-24 12:39:44:579
5.0996,-8.8027,0.2697,3.01,-9.2219,1.4378,2.3465,0.846,-0.1847,-0.3234,0.7567,0.0566,-23.69,22.5,-4.17,154.57,70.11,-64.47,111305,2016-03-24 12:39:44:679
3.3055,-10.514,-3.9555,3.6207,-9.1075,0.339,0.3606,-2.0533,-3.9493,-1.9161,0.4965,-1.0235,-26.08,19.29,-11.15,182.73,70.03,-69.01,111406,2016-03-24 12:39:44:780
1.4711,-11.5908,-0.9037,4.4377,-8.704,-0.8475,-2.9978,-2.2391,-1.5916,-2.7406,1.4178,-1.4676,-27.24,20.06,-14.9,213.38,68.23,-84.65,111509,2016-03-24 12:39:44:883
1.9861,-6.6545,-2.0943,5.9713,-7.5695,-1.7935,-1.8189,-1.0056,-0.7684,-0.6859,-0.3452,-0.7769,-25.54,20.6,-18.09,265.67,50.52,-106.72,111606,2016-03-24 12:39:44:980
1.1008,-4.5089,-2.1543,5.981,-7.4886,-2.0781,-5.4188,1.8651,0.8683,-0.1658,-0.0556,0.1146,-27.04,19.64,-17.1,261.79,50.52,-106.72,111705,2016-03-24 12:39:45:079
5.3035,-6.6809,-1.0329,4.996,-8.3234,-1.3895,-2.769,2.3707,-0.1698,0.5971,1.358,1.4763,-23.21,22.58,-20.31,273.96,52.68,-109,111805,2016-03-24 12:39:45:179
5.8721,-6.9879,-3.7569,4.4678,-8.6915,-0.8168,1.0923,2.5017,-0.36,0.8402,-0.1992,0.6936,-21.37,24.36,-23.85,271.95,58.08,-105.54,111905,2016-03-24 12:39:45:279
5.7162,-11.4147,-1.025,4.2975,-8.8147,0.0639,1.1372,1.1983,-3.8354,0.832,0.2983,-0.0327,-20.28,23.42,-27.3,265.3,62.41,-100.36,112006,2016-03-24 12:39:45:380
6.8566,-13.4071,-0.3415,4.3672,-8.7694,-0.441,1.7427,-5.6019,0.4423,-0.8622,-0.3024,-0.3003,-17.7,18.13,-34.13,257.06,64.24,-90.94,112108,2016-03-24 12:39:45:482
0.6765,-9.1917,1.4441,4.1754,-8.8719,-0.158,-3.2416,-0.6554,2.7193,-0.139,-0.0636,-0.0664,-17.75,18.05,-33.38,261.8,63.41,-95.77,112207,2016-03-24 12:39:45:581
4.9886,-7.2652,-0.8004,3.3665,-9.1836,0.7055,0.778,1.2595,-1.6352,0.568,0.4553,0.7394,-17.91,16.44,-36.41,240.56,69.47,-78.16,112306,2016-03-24 12:39:45:680
3.4793,-6.8597,-2.6575,3.309,-9.2,0.7621,2.6971,1.8981,-1.7783,0.2677,0.0348,0.3891,-16.23,15.76,-36.57,243.86,69.47,-78.16,112406,2016-03-24 12:39:45:780
3.7897,-8.3804,-0.5874,3.7659,-9.0545,-0.0715,-0.0749,2.1438,1.3804,-1.0237,0.1364,-0.4326,-17.53,15.82,-37.53,248.14,69.05,-84.41,112506,2016-03-24 12:39:45:880
7.4759,-6.6997,-3.809,4.102,-8.8955,-0.4621,-0.1544,0.7178,-0.7441,-0.6122,0.3035,-0.514,-17.95,17.1,-36.8,262.2,65.11,-96.43,112605,2016-03-24 12:39:45:979
2.7696,-12.9131,0.8709,5.8418,-7.1439,-3.3178,2.2313,-2.9083,-0.915,-2.5974,-1.0367,-2.2435,-19.97,18.98,-34.27,274.96,57.61,-108.64,112705,2016-03-24 12:39:46:079
1.7305,-6.1667,-1.519,6.0355,-6.5029,-4.178,-2.0594,-7.9793,4.844,-1.3179,-1.3538,-1.4144,-23.55,19.13,-27.43,282.03,46.76,-119.59,112805,2016-03-24 12:39:46:179
3.8411,-6.9964,-3.229,5.4993,-7.5123,-3.0811,-2.8975,1.8163,0.4001,1.167,0.8347,1.327,-24.93,18.06,-19.11,281.5,43.12,-123.41,112905,2016-03-24 12:39:46:279
6.7455,-6.5751,-4.9466,4.6911,-8.3381,-2.1541,0.4643,1.0246,-1.3305,1.5823,0.3893,1.7385,-20.2,18.88,-21.7,283.74,50,-119.26,113006,2016-03-24 12:39:46:380
5.6472,-12.4195,-1.9605,4.0156,-8.8877,-1.0266,0.6911,1.9898,-1.7968,0.9496,-0.0331,0.1413,-13.54,17.1,-24.5,271.04,65,-104.34,113106,2016-03-24 12:39:46:480
7.4521,-12.4701,-0.0825,3.9956,-8.9387,-0.553,1.0184,-5.2755,-0.7729,0.8121,-0.0631,0.0201,-11.34,17.3,-24.69,276.64,65,-104.34,113206,2016-03-24 12:39:46:580
2.1914,-8.7655,1.539,3.9322,-8.9815,-0.2039,2.3102,-3.6726,-0.9485,0.4274,-0.0375,0.2411,-8.05,18.32,-25.24,272.47,66.33,-92.97,113305,2016-03-24 12:39:46:679
5.4057,-7.1943,-0.9271,3.1067,-9.2787,0.6513,0.3984,1.1694,-1.9969,0.4011,0.2928,0.5798,-6.46,19.58,-28.06,260.21,71.11,-78.16,113405,2016-03-24 12:39:46:779
3.0513,-6.6805,0.9256,3.16,-9.2785,0.3074,1.906,2.8708,-2.6004,-0.9319,0.1651,-0.2532,-6.29,19.45,-29.86,265.61,71.11,-84.44,113505,2016-03-24 12:39:46:879
4.769,-9.645,-4.8662,4.6359,-8.5047,-1.5329,1.9297,-0.8593,-4.0438,-3.2253,0.3584,-2.3807,-6.03,28.05,-31.02,282.61,68.69,-94.8,113605,2016-03-24 12:39:46:979
4.0712,-14.2405,0.0454,5.7557,-7.3623,-2.973,0.0915,-8.3525,3.8881,-1.8947,-1.1584,-2.1686,-13.93,38.28,-27.63,309.07,48.65,-117.32,113707,2016-03-24 12:39:47:081
3.4012,-6.5041,-3.4165,5.6025,-7.4217,-3.1146,-3.8524,0.5142,1.2501,1.2973,0.2905,1.41,-23.66,40.5,-22.33,304.84,44.85,-120.6,113806,2016-03-24 12:39:47:180
5.8768,-6.7931,-3.2398,4.7423,-8.288,-2.2339,0.0419,1.3041,-1.3706,1.6582,0.2238,2.0133,-19.55,41.42,-27.31,296.39,57.69,-115.22,113906,2016-03-24 12:39:47:280
3.1829,-6.9006,-4.4006,3.8997,-8.9552,-0.876,-0.2609,2.4483,-1.6299,0.7504,0.2591,0.0791,-15.48,41.15,-35.01,285.46,65.95,-102.66,114006,2016-03-24 12:39:47:380
7.3644,-13.1414,1.4615,3.8445,-9.0026,-0.5854,-1.0258,1.8325,-3.599,0.7504,0.2591,0.0791,-15.48,41.15,-35.01,285.46,65.95,-102.66,114106,2016-03-24 12:39:47:480
3.389,-7.2098,0.9245,3.8526,-8.992,-0.6869,1.7388,-6.182,-0.9881,0.158,-0.2602,-5.0000E-04,-17.34,40.1,-41.85,279.45,66.48,-100.11,114205,2016-03-24 12:39:47:579
2.169,-8.4305,1.4953,3.8225,-8.9723,-1.0277,1.2201,-1.0092,-1.6886,-0.7721,-0.2137,-0.1499,-19.7,39.89,-44.02,276.08,66.48,-100.11,114305,2016-03-24 12:39:47:679
4.3867,-6.5252,-3.4403,3.454,-9.1405,-0.8321,2.8388,3.3672,-2.5651,0.3408,0.2531,0.529,-22.9,43.82,-44.29,275.58,68.76,-103.55,114405,2016-03-24 12:39:47:779
6.8015,-6.4093,-3.8154,3.7477,-8.9843,-1.1859,0.2542,1.9065,-1.5053,-0.6148,0.5578,-0.3394,-22.71,43.66,-47.13,281.51,66.37,-107.56,114505,2016-03-24 12:39:47:879
1.3229,-10.5746,-1.178,5.4536,-7.2715,-3.6815,0.6708,-8.9897,2.8082,-2.6193,-0.716,-2.3412,-30.13,48.27,-41.44,289.92,58.09,-116.55,114605,2016-03-24 12:39:47:979
0.838,-6.6158,-1.2948,5.2814,-7.2868,-3.8962,-4.5091,0.4056,3.0142,0.3834,0.1378,0.431,-45.75,47.69,-25.18,292.1,44.42,-127.56,114705,2016-03-24 12:39:48:079
5.8287,-7.5082,-2.3507,4.6564,-8.0727,-3.0529,-2.9017,4.0412,0.63,1.2656,0.5566,1.4186,-44.99,47.81,-25.8,289.3,47.99,-126.42,114805,2016-03-24 12:39:48:179
4.4618,-6.6814,-3.1109,3.8506,-8.9568,-1.0577,2.4258,0.5221,-2.9472,1.633,0.3236,0.5459,-32.93,49.59,-39.52,271.18,65.97,-105.36,114905,2016-03-24 12:39:48:279
5.3871,-13.0988,2.0148,3.7783,-9.0238,-0.6831,1.3308,0.1518,-4.6096,0.859,0.0023,0.1647,-31.14,46.28,-43.2,266.39,66.95,-100.25,115005,2016-03-24 12:39:48:379
8.1556,-12.897,-2.5791,3.9532,-8.9273,-0.9201,2.1337,-4.2635,-0.9089,-0.25,-0.2189,-0.2163,-30.12,43.05,-44.49,270.32,65.55,-103.1,115105,2016-03-24 12:39:48:479
3.2421,-7.746,-1.422,3.8123,-8.9813,-0.9861,-3.15,1.5644,1.6968,0.0346,-0.3408,0.1773,-32.32,42.33,-44.18,267.82,65.55,-103.1,115206,2016-03-24 12:39:48:580
3.1416,-5.9921,-1.0635,3.3846,-9.1627,-0.8714,0.0332,2.6075,0.4487,0.0411,0.2316,0.2776,-33.19,44.56,-43.42,265.64,69.12,-104.44,115305,2016-03-24 12:39:48:679
5.1934,-6.8793,-3.8386,3.6412,-9.0545,-0.9632,2.9823,2.0104,-1.8517,-0.5139,0.781,-0.3932,-32.92,45.23,-42.81,267.69,67.41,-104.82,115405,2016-03-24 12:39:48:779
4.6998,-16.3672,-0.067,5.357,-7.5406,-3.2577,1.4802,-5.2263,0.9294,-2.2012,-1.0586,-2.0137,-36.45,48.57,-37.79,294.07,50.26,-121.3,115505,2016-03-24 12:39:48:879
0.6533,-6.2621,-1.3568,5.5788,-6.9172,-4.1473,-3.6401,-6.0106,3.7906,-0.701,-1.0514,-0.8685,-44.34,48.9,-28.16,293.92,44.86,-126.63,115606,2016-03-24 12:39:48:980
2.6309,-5.8771,-2.2176,5.004,-7.873,-3.0243,-3.8664,2.242,1.1667,1.4939,0.7026,1.5287,-47.11,47.47,-25.86,287.76,46.65,-125.71,115705,2016-03-24 12:39:49:079
4.9608,-6.1714,-4.0763,4.2403,-8.5903,-2.0966,-1.2014,2.232,-0.2531,1.6015,-0.0716,1.3603,-41.38,48.54,-29.48,285.87,53.4,-121.15,115805,2016-03-24 12:39:49:179
4.8184,-12.1979,-2.2225,3.7528,-9.0096,-0.9563,1.5634,2.3356,-2.9461,0.275,0.7128,-0.1585,-35.1,47.52,-35.09,270.73,65.89,-110.09,115905,2016-03-24 12:39:49:279
8.4133,-19.1559,-3.9355,3.8134,-9.0188,-0.5386,3.4787,-7.3715,0.1306,0.6673,0.4588,0.0365,-35.08,46.08,-36.85,261.78,66.62,-101.78,116005,2016-03-24 12:39:49:379
0.9391,-7.7314,-0.4009,3.6265,-9.1112,-0.0646,-1.9601,0.4027,1.8585,0.6673,0.4588,0.0365,-35.08,46.08,-36.85,261.78,66.62,-101.78,116106,2016-03-24 12:39:49:480
3.0378,-5.7175,-1.4827,3.3255,-9.2234,-0.2004,0.1153,1.6999,-1.7854,-0.1453,0.4234,0.2023,-33.75,43.73,-39.53,250.69,70.14,-93.45,116206,2016-03-24 12:39:49:580
6.2307,-3.5616,-1.6448,3.5067,-9.129,-0.7318,0.8256,4.981,-0.208,-0.9719,0.0442,0.0894,-32.71,44.5,-39.44,262.12,68.57,-101.79,116306,2016-03-24 12:39:49:680
6.9553,-14.4048,-2.0403,4.8903,-8.1928,-2.2657,0.6442,2.7667,-0.7945,-1.0789,0.0386,-1.1191,-33.37,48.77,-33.86,271.09,64.68,-106.07,116406,2016-03-24 12:39:49:780
4.6556,-11.8029,-2.9273,5.5237,-7.3313,-3.4513,1.9441,-6.8191,1.1184,-2.1238,-1.4292,-2.1496,-36.3,47.76,-28.03,295.2,48.38,-122,116505,2016-03-24 12:39:49:879
1.8563,-7.027,-2.5022,5.5848,-7.5333,-2.8688,-1.7353,-2.8981,-0.1339,1.0643,0.2975,0.0389,-46.49,40.78,-13.18,277.39,46.61,-121.37,116605,2016-03-24 12:39:49:979
4.3762,-6.8813,-4.1702,5.1061,-8.0556,-2.2816,-1.9293,0.5304,-1.0553,1.1311,0.1917,0.988,-45.9,40.93,-14.02,269.54,50.19,-117.19,116705,2016-03-24 12:39:50:079
3.9266,-6.9244,-2.7395,4.3867,-8.6306,-1.5619,-0.2653,1.3379,-1.122,0.4382,0.2946,0.6613,-40.15,43.29,-18.98,262.87,59.02,-111.06,116806,2016-03-24 12:39:50:180
2.3012,-5.3751,-1.4614,4.2295,-8.7358,-1.4028,-0.102,1.9724,-1.7087,0.2207,0.161,0.3925,-37.16,44.03,-20.66,263.65,61.65,-109.6,116905,2016-03-24 12:39:50:279
4.504,-6.4413,-3.8136,4.0658,-8.8851,-0.8338,-0.5294,2.4015,-2.6742,0.1819,0.8544,0.2677,-32.3,43.58,-21.85,258.34,64.96,-101.59,117005,2016-03-24 12:39:50:379
-0.4756,-11.7783,-1.1067,4.101,-8.9006,-0.3626,2.598,-1.2376,0.0056,0.4619,0.7191,0.0522,-30.18,43.03,-22.43,260.89,64.96,-101.59,117105,2016-03-24 12:39:50:479
2.5389,-5.8059,-2.3452,4.0397,-8.9295,0.3408,0.0503,-7.0889,1.3807,-0.0038,0.8346,-0.0468,-25.37,39.91,-23.85,249.9,65.58,-85.18,117205,2016-03-24 12:39:50:579
1.6557,-7.1118,0.8115,3.5036,-9.1067,0.9813,-0.7249,-2.1164,0.3769,-0.2894,1.939,0.5733,-18.86,40.12,-26.79,257.97,66,-80.31,117305,2016-03-24 12:39:50:679
4.5151,-6.9142,0.1406,2.9327,-9.2712,1.2706,-0.7143,2.5414,0.2368,0.0213,1.608,0.7528,-14.8,41.92,-28.89,257.96,68.22,-74.35,117406,2016-03-24 12:39:50:780
4.6951,-9.9889,0.2484,2.3461,-9.4152,1.4211,3.2332,-0.5762,-0.2428,-0.3132,0.9496,0.1523,-7.91,42.77,-30.44,249.28,72.71,-59.7,117506,2016-03-24 12:39:50:880
4.7363,-9.7337,0.0028,2.3248,-9.4429,1.264,0.9714,-1.7083,-0.936,-0.4767,0.8104,-0.0979,-2.25,42.88,-28.76,262.04,74.35,-61.47,117606,2016-03-24 12:39:50:980
3.3764,-9.0271,-2.7877,3.11,-9.2978,0.2212,1.0104,1.1782,-1.3432,-1.5722,0.4962,-1.1385,-1.2,43.94,-23.63,278.41,73.97,-69.79,117706,2016-03-24 12:39:51:080
1.3438,-11.8369,-0.8519,4.0276,-8.9263,-0.5189,-3.0459,-2.0142,-1.5058,-1.9314,1.9671,-1.6676,-3.92,45.63,-19.71,295.78,71.46,-85.93,117806,2016-03-24 12:39:51:180
1.8584,-7.7793,-1.5565,5.9133,-7.7667,-0.9386,-0.2195,-2.3532,-0.8908,-0.2519,-0.0864,-1.2319,-7.48,46.54,-13.24,330.7,52.37,-99.02,117905,2016-03-24 12:39:51:279
1.3527,-6.0591,-2.3182,6.1959,-7.4975,-1.2524,-4.7244,-0.2324,-0.7751,-0.5179,-0.3426,-0.3686,-12.88,43.84,-12.08,322.63,52.37,-99.02,118005,2016-03-24 12:39:51:379
5.5115,-6.3822,-1.0877,5.779,-7.7877,-1.4576,-3.6292,1.4503,0.2831,-0.2828,1.425,0.9072,-11.06,44.87,-9.34,332.87,50.18,-104.4,118106,2016-03-24 12:39:51:480
11.6357,-6.4105,-4.8928,5.5329,-8.0337,-1.0081,-0.6307,1.7436,-0.1492,-0.2828,1.425,0.9072,-11.06,44.87,-9.34,332.87,50.18,-104.4,118206,2016-03-24 12:39:51:580
5.2252,-14.1113,-3.4686,5.6521,-7.9993,-0.4854,-3.2585,-1.4224,-3.6395,-0.1838,0.9016,-0.5333,-5.02,45.37,-9.79,335.37,54.66,-94.91,118306,2016-03-24 12:39:51:680
-3.494,-5.0133,0.2462,5.555,-8.0777,-0.2493,1.0245,-5.25,-1.8996,-0.0124,0.6942,0.45,-4.32,44.37,-9.49,337.82,54.66,-94.91,118406,2016-03-24 12:39:51:780
4.162,-9.0823,0.0022,4.2983,-8.7958,0.5728,-0.3243,-2.0917,1.3114,0.0741,1.4212,1.629,1.37,41.78,-13.51,327.68,58.92,-88.2,118506,2016-03-24 12:39:51:880
1.2843,-9.7849,1.931,3.9994,-8.9148,0.8376,-0.6281,-0.6618,-0.8635,-0.1077,1.2706,0.0964,7.62,41.78,-13.48,327.09,65.38,-78.17,118606,2016-03-24 12:39:51:980
4.341,-8.2138,0.2772,3.4554,-9.0524,1.5115,-0.1186,-0.1782,-0.3096,-0.1133,1.7783,0.2638,8.75,40.49,-13.87,317.31,67.38,-66.37,118705,2016-03-24 12:39:52:079
4.4991,-8.4911,0.7717,2.8412,-9.17,2.0021,0.7479,0.2012,-2.6032,-0.235,1.9065,0.1501,15.42,39.92,-10.35,320.3,69.24,-54.83,118805,2016-03-24 12:39:52:179
6.2107,-9.5241,0.312,2.6445,-9.2207,2.0385,2.0633,1.0933,-0.7646,-0.2965,1.3449,0.1467,16.8,39.89,-8.63,320.33,70.09,-52.37,118906,2016-03-24 12:39:52:280
5.2133,-11.4807,-1.4991,3.0023,-9.1978,1.599,1.7372,-2.3254,-2.8631,-0.7923,0.9154,-0.6281,19.6,39.81,-4.6,328.01,70.1,-52.78,119006,2016-03-24 12:39:52:380
1.5169,-12.2844,0.9049,3.7576,-9.0456,0.4769,-1.7474,-1.5012,-1.1773,-2.1705,0.9028,-1.3263,19.96,40.27,-3.01,350.66,67.28,-82.77,119106,2016-03-24 12:39:52:480
4.0998,-8.9034,0.2906,5.9085,-7.7625,-1.0017,-0.8899,-2.1548,0.3234,-1.5784,0.7524,-1.9435,11.16,44.3,9.93,18.91,52.33,-99.62,119205,2016-03-24 12:39:52:579
0.2807,-4.325,-1.1386,6.5083,-7.1749,-1.5274,-3.8863,0.1256,0.8289,-0.8419,-0.3257,-1.3329,6.44,43.3,13.81,26.96,52.33,-99.62,119306,2016-03-24 12:39:52:680
4.1481,-5.8235,-1.9025,6.1096,-7.4918,-1.6482,-5.0701,3.0664,-0.2963,0.2045,0.4842,0.9385,1.49,42.17,16.6,32.3,46.38,-105.91,119406,2016-03-24 12:39:52:780
12.6787,-7.2119,-4.8311,5.7279,-7.896,-1.0072,1.7552,-0.3268,-1.7351,0.5008,1.1936,0.9021,3.02,42.06,16.89,33.55,49.81,-105.1,119506,2016-03-24 12:39:52:880
-2.3171,-12.0279,-2.9993,5.8783,-7.8449,-0.2727,1.8616,-0.0907,-2.7606,0.4044,0.7487,0.2192,3.52,40.69,13.02,26.62,53.25,-95.99,119606,2016-03-24 12:39:52:980
-1.9481,-4.7919,1.2242,5.5413,-8.091,0.0141,-4.253,-4.4086,-3.5097,-0.4473,1.222,0.4543,2.46,41.25,13.32,26.95,53.13,-92.66,119705,2016-03-24 12:39:53:079
6.659,-6.9911,-2.5533,4.1591,-8.8658,0.5198,-3.8041,0.2687,2.778,0.9109,0.8502,1.2511,4.75,39.38,15.33,31.92,59.45,-90.15,119805,2016-03-24 12:39:53:179
4.7413,-8.0473,-0.3106,3.708,-9.0262,0.9743,-0.8798,0.1894,-2.9566,-0.1609,0.8379,0.0516,5.78,39.83,13.93,28.67,64.7,-82.88,119907,2016-03-24 12:39:53:281
3.8015,-8.0628,-0.0749,3.5897,-9.0696,1.0134,0.3651,0.8161,-1.8884,-0.2681,0.4635,0.0273,3.52,39.23,14.91,30.87,67.35,-74.24,120005,2016-03-24 12:39:53:379
2.7273,-7.7257,0.2908,3.7147,-9.0409,0.7962,-0.4129,1.1733,-1.0233,-0.3221,0.241,-0.2136,3.31,38.72,17.02,37.17,67.21,-77.9,120106,2016-03-24 12:39:53:480
4.296,-7.0651,-0.2461,3.9029,-8.9792,0.5578,0.1868,2.1502,-1.7753,-0.6666,0.408,-0.4032,1.66,36.74,18.07,41.22,67.21,-77.9,120205,2016-03-24 12:39:53:579
5.4447,-6.7753,-4.7881,4.9685,-8.4363,-0.5602,0.5251,1.3171,-3.0318,-0.5935,0.1457,-0.6546,-0.6,36.81,20.97,52.36,64.55,-86.33,120305,2016-03-24 12:39:53:679
2.2774,-12.3859,-0.854,5.8763,-7.5925,-1.9985,0.6618,-2.3792,-2.2992,-2.5644,0.3813,-1.9443,-1.21,32.45,24.03,61.02,59.35,-96.43,120405,2016-03-24 12:39:53:779
1.9361,-7.6023,-2.2202,5.7863,-7.1661,-3.3668,-5.406,-1.5561,1.9768,-0.6613,-1.0572,-0.0831,-4.27,22.82,36.47,90.11,46.95,-120.19,120505,2016-03-24 12:39:53:879
5.7566,-8.1174,-2.6091,5.2609,-7.7733,-2.8406,-3.292,0.7183,0.4754,0.4716,0.7455,0.9693,-1.21,22.24,38.18,92.77,52.43,-118.37,120605,2016-03-24 12:39:53:979
5.1923,-6.0267,-3.2951,3.9438,-8.8415,-1.5634,1.8511,2.2896,-1.7148,1.0831,0.1982,1.3283,-1.49,24.56,37.66,94.33,59.21,-116.51,120706,2016-03-24 12:39:54:080
3.9763,-8.4084,-5.8216,3.7172,-9.0201,-0.9951,0.5188,1.3199,-2.3488,1.0044,0.447,0.5904,1.47,29.63,38.18,88.09,64.37,-111.62,120806,2016-03-24 12:39:54:180
4.9198,-12.402,0.1257,3.4729,-9.1685,-0.22,0.7994,0.7601,0.5419,0.5966,0.1611,0.2411,2.36,35.15,38.68,72.94,69.22,-93.62,120906,2016-03-24 12:39:54:280
7.3925,-13.1306,-2.4112,3.4302,-9.1853,0.1843,1.7389,-3.8867,-1.8293,0.9825,-0.1728,0.163,3.59,37.44,39.78,70.16,69.22,-93.62,121006,2016-03-24 12:39:54:380
2.8255,-9.536,0.4237,3.4293,-9.1874,0.0512,-1.8926,1.1139,3.139,-0.0556,-0.0854,0.1166,6.35,41.14,38.26,62.17,68.61,-90.71,121105,2016-03-24 12:39:54:479
4.0009,-6.947,-1.3499,3.1143,-9.2947,0.2822,0.4764,-0.2499,-0.9316,0.0055,-0.196,0.3719,6.21,43.32,37.45,58.17,71.41,-84.82,121205,2016-03-24 12:39:54:579
1.6621,-7.3857,0.2941,2.8863,-9.3721,0.0578,1.5445,2.3053,-1.9135,-0.198,-0.0496,0.097,8.41,44.13,37.71,60.59,72.88,-88.85,121305,2016-03-24 12:39:54:679
5.4688,-6.7233,-3.8488,3.8774,-8.9805,-0.6978,1.5631,1.3181,-2.9148,-1.0955,0.4325,-1.0568,6.91,44.07,38.51,65.98,66.31,-100.2,121405,2016-03-24 12:39:54:779
7.0019,-12.8983,0.0992,4.7973,-8.2757,-2.1607,2.1802,-2.2772,-1.2475,-2.3805,-0.8605,-1.8639,3.69,41.56,43.98,73.14,66.31,-100.2,121506,2016-03-24 12:39:54:880
2.6108,-7.9634,-2.0045,5.4817,-7.1821,-3.813,-2.9046,-1.7606,2.1339,-0.0322,-0.0509,-0.3974,0.78,31.31,51.54,91.22,49.1,-123.78,121606,2016-03-24 12:39:54:980
3.7414,-6.4928,-3.068,5.2743,-7.5863,-3.2865,-2.8352,0.9231,0.4412,0.7661,0.5952,0.9366,0.09,31.39,52.15,92.11,50.68,-121.93,121705,2016-03-24 12:39:55:079
5.1892,-6.7836,-2.8422,4.0749,-8.6708,-2.0934,1.2177,1.399,-0.827,1.0943,0.111,1.1034,0.17,39.03,50.21,89.26,56.64,-120.01,121806,2016-03-24 12:39:55:180
3.1736,-6.8729,-2.5251,3.7427,-8.9268,-1.5731,1.5297,1.8217,-1.4488,0.7215,0.1819,0.4376,3.07,43.8,48.66,86.03,62.15,-117.19,121906,2016-03-24 12:39:55:280
3.9677,-6.9627,-3.4908,3.5801,-9.0928,-0.8213,0.5748,1.4675,-2.847,0.4776,-0.0186,0.044,2.65,51,45.79,74.9,68,-102.92,122006,2016-03-24 12:39:55:380
4.1865,-9.2796,0.2135,3.5158,-9.1415,-0.4928,0.7846,1.536,-1.3018,0.9417,-0.525,0.2173,2.95,53.2,44.89,70.27,68.78,-97.98,122106,2016-03-24 12:39:55:480
-0.2523,-7.4163,2.5585,3.4659,-9.1674,0.3408,-0.8006,3.1527,2.3276,-0.1289,0.0093,-0.2969,3.65,59.52,40.22,53.95,69.2,-84.38,122206,2016-03-24 12:39:55:580
1.5578,-8.1896,-0.433,3.4315,-9.171,0.5364,-1.6294,-1.4982,0.5218,0.5816,0.5136,0.2765,3.51,58.05,40.95,52.91,69.26,-81.12,122306,2016-03-24 12:39:55:680
2.4717,-5.2555,-1.2964,2.9302,-9.328,0.7573,3.0299,1.66,-2.9344,0.2948,-0.0833,0.6848,2.33,59.51,37.78,49.66,70.82,-75.12,122406,2016-03-24 12:39:55:780
7.2348,-7.4852,-1.6725,3.0261,-9.3152,0.4893,-0.1431,3.6184,-1.6251,-0.2934,-0.2168,0.0972,3,58.07,37.66,54.21,71.78,-80.82,122506,2016-03-24 12:39:55:880
6.3675,-9.1146,-3.2182,4.6384,-8.6103,-0.7193,2.1684,1.0841,-3.1328,-1.1348,0.813,-1.5267,3.05,58.34,40.36,58,61.4,-98.82,122606,2016-03-24 12:39:55:980
2.9127,-12.6002,-0.7954,5.6692,-7.3891,-3.0713,-0.456,-7.8582,2.4777,-1.6548,-1.317,-1.3448,-5.69,44.04,53.29,82.28,48.89,-118.45,122705,2016-03-24 12:39:56:079
2.4643,-5.3339,-3.0247,5.663,-7.4773,-2.8621,-2.09,-1.678,1.6108,-0.0196,-0.3316,-0.2596,-3.86,38.06,57.06,87.77,48.89,-118.45,122805,2016-03-24 12:39:56:179
3.9113,-5.563,-2.27,4.4978,-8.5821,-1.5127,-1.6583,3.138,-1.6937,1.0678,0.3434,1.4627,-5.8,41.71,53.14,89.33,61.06,-108.59,122905,2016-03-24 12:39:56:279
4.1222,-6.6828,-2.1304,3.8466,-8.9741,-0.9166,0.6108,1.9023,-2.234,1.0396,0.196,1.3604,-5.25,47.81,50.27,84.83,66.22,-103.4,123005,2016-03-24 12:39:56:379
4.4258,-8.1765,-4.5709,3.4236,-9.1895,-0.0511,1.0708,0.4902,-4.0844,0.6093,0.3193,0.2754,-0.17,56.84,46.59,71.23,68.54,-96.54,123105,2016-03-24 12:39:56:479
3.7411,-9.2038,-0.4668,3.3793,-9.2044,0.1699,3.6965,-6.1928,-1.4414,0.3595,0.2894,0.133,-0.81,59.19,45.62,64.86,69.82,-87.12,123206,2016-03-24 12:39:56:580
0.4681,-7.3392,1.7927,3.3482,-9.192,0.6832,1.7175,-3.1776,-0.7984,0.4468,0.1844,0.069,-1.69,61.01,42.73,60.74,69.64,-83.32,123306,2016-03-24 12:39:56:680
3.0283,-8.7699,-0.442,3.1066,-9.2472,1.0046,-2.468,0.9265,0.484,0.5111,0.0336,0.3509,-0.62,60.83,41.34,51.47,70.55,-72.08,123406,2016-03-24 12:39:56:780
4.8708,-4.7702,-2.4455,2.6629,-9.3689,1.1413,1.8031,2.1386,-2.8282,-0.2169,-0.165,0.233,3.49,63.53,35.41,39.74,71.8,-65,123505,2016-03-24 12:39:56:879
3.7194,-7.5055,0.0958,2.8821,-9.3481,0.6904,2.1726,3.9669,-3.4712,-0.7845,0.4966,-0.3685,4.39,62.99,36.74,41.98,72.82,-66.8,123605,2016-03-24 12:39:56:979
7.6391,-16.1842,-0.5452,4.4461,-8.7042,-0.7997,1.7182,1.0258,-2.7643,-2.3705,-0.2422,-2.0941,-0.78,57.54,41.89,60.89,69.85,-83.79,123710,2016-03-24 12:39:57:084
2.7334,-10.408,-0.7672,5.575,-7.7557,-2.2224,0.3679,-6.947,4.121,-2.2177,-0.6924,-2.2288,-3.16,51.28,49.66,72.42,52.27,-111.73,123805,2016-03-24 12:39:57:179
1.4966,-4.3992,-1.5533,5.8075,-7.4021,-2.7662,-4.5836,2.5054,1.4838,0.772,0.2038,0.9291,-3.48,38.74,56.99,84.27,49.01,-115.47,123906,2016-03-24 12:39:57:280
5.3397,-8.315,-3.8633,4.1667,-8.7996,-1.1733,0.7734,-0.3807,-1.9184,1.7126,0.0448,1.2927,0.79,46.23,53.73,81.26,63.81,-105.73,124006,2016-03-24 12:39:57:380
4.4406,-8.4803,-3.0437,3.7836,-9.0338,-0.4957,1.5757,2.2062,-3.532,1.0255,-0.3757,0.3747,3.86,51.3,50.14,70.73,67.1,-97.46,124106,2016-03-24 12:39:57:480
6.106,-15.0809,1.7747,3.824,-9.0211,0.4079,1.3116,-1.6683,-3.8881,1.1689,-0.8131,0.0663,2.1,57.68,47.46,63.34,67.3,-90.82,124205,2016-03-24 12:39:57:579
4.3942,-10.467,1.0885,3.8195,-9.0115,0.6117,2.9615,-5.4897,-0.9795,0.2642,-0.6496,0.0945,5.14,60.68,45.03,51.16,66.77,-80.9,124305,2016-03-24 12:39:57:679
2.3332,-9.8797,-0.1129,3.6299,-9.0469,1.0711,-2.4518,2.092,0.0751,0.5233,0.0708,0.0363,7.11,59.91,44.12,44.56,67.3,-73.56,124405,2016-03-24 12:39:57:779
4.6565,-8.3755,-1.2688,3.3385,-9.1242,1.3322,-0.6131,-1.3504,-1.2938,0.4045,0.2997,0.3675,7.67,61.11,42.86,39.98,68.5,-68.25,124506,2016-03-24 12:39:57:880
2.7792,-6.686,-0.2786,3.081,-9.2238,1.2648,-0.1986,1.9646,-1.7484,-0.0652,-0.0455,0.1379,12.08,60.54,39.61,33.94,69.26,-66.02,124606,2016-03-24 12:39:57:980
3.1044,-9.1887,-1.1697,3.2662,-9.2065,0.8616,2.9337,2.9244,-2.0172,-0.4838,0.1872,0.0789,12.33,61.52,39.58,35.32,70.15,-67.68,124705,2016-03-24 12:39:58:079
7.1704,-8.8011,-5.5361,4.6823,-8.5605,-0.9821,1.3049,3.096,-2.8549,-1.639,0.2778,-1.1117,11.3,56.65,43.57,51.63,68,-86.26,124806,2016-03-24 12:39:58:180
1.8613,-9.953,-2.6139,5.6372,-7.6051,-2.5601,1.4945,-4.7686,-0.3148,-2.7595,-0.5044,-2.3883,6.49,52.12,48.29,64.86,50.85,-114.43,124906,2016-03-24 12:39:58:280
2.866,-5.1814,-3.4448,5.6897,-7.3787,-3.0581,-4.26,-0.5234,0.3409,0.2492,0.0559,0.0309,6.93,39.81,58.2,78.6,46.64,-119.93,125005,2016-03-24 12:39:58:379
3.9528,-5.6412,-1.6495,5.1362,-8.0121,-2.3657,-1.9457,2.3862,-1.1404,0.8288,0.8757,1.2843,8.02,42.04,57.38,79.04,54.79,-114.73,125106,2016-03-24 12:39:58:480
4.7793,-6.8172,-3.8653,3.8013,-9.0062,-0.7798,-0.0037,2.5991,-1.1345,1.1371,0.5692,1.1895,9.5,48.51,53.49,70.97,66.69,-101.59,125206,2016-03-24 12:39:58:580
6.3295,-11.1864,0.377,3.3544,-9.1999,0.5304,2.7559,-1.1488,-0.9415,0.9785,0.6127,0.2395,10.24,56.79,51.07,62.09,69.23,-92.77,125306,2016-03-24 12:39:58:680
2.9711,-12.8441,-0.8883,3.2197,-9.2038,1.0459,0.3806,-3.5061,-0.9836,0.7504,0.4071,0.1548,9.86,61.89,49.01,44.33,69.81,-72,125405,2016-03-24 12:39:58:779
0.3862,-7.909,0.9245,2.9721,-9.2929,0.9895,-1.6106,0.6562,-0.0369,-0.466,0.6109,0.0515,10.37,65.2,47.4,41.46,70.52,-69.63,125505,2016-03-24 12:39:58:879
0.5943,-8.2729,1.353,2.8804,-9.3254,0.9545,-0.3975,-0.3971,1.7634,-0.5612,1.6224,0.0135,11.14,63.58,51.13,44.57,71.37,-71.59,125605,2016-03-24 12:39:58:979
4.2381,-8.9424,-1.3083,2.5975,-9.4292,0.7171,2.3346,0.9185,-0.8648,-1.0009,1.8892,0.0463,4.11,61.67,55.64,52.16,73.1,-70.11,125705,2016-03-24 12:39:59:079
6.1013,-5.9852,-3.0566,2.7343,-9.4121,0.3249,0.8687,0.5989,-0.0457,-1.3473,2.477,-0.2851,-3.38,57.46,59.4,64.12,74.05,-74.57,125806,2016-03-24 12:39:59:180
4.4107,-8.1531,-1.2385,3.5476,-9.0866,-1.0096,0.7958,2.9871,-0.1721,-1.6956,0.85,-0.5875,-15.43,44.83,66.13,102.52,67.91,-105.89,125906,2016-03-24 12:39:59:280
1.6306,-12.8718,-2.6051,4.1892,-8.7088,-1.667,0.1774,-0.0397,0.6513,-1.3883,0.7098,-1.1488,-15.96,37.79,71.14,107.59,62.63,-111.7,126006,2016-03-24 12:39:59:380
2.7534,-9.3731,-4.8246,4.9098,-8.3537,-1.5102,-2.2909,-2.0518,-3.3103,0.0668,0.8388,0.1123,-20.47,32.13,70.95,105.6,58.41,-107.1,126106,2016-03-24 12:39:59:480
1.1146,-8.4322,-0.9113,4.6127,-8.5386,-1.4089,-2.9597,-0.5052,-2.5267,-0.3949,0.8432,0.8748,-25.9,34.81,63.6,109.41,58.41,-107.1,126206,2016-03-24 12:39:59:580
3.0493,-8.9954,-2.5846,3.559,-9.0189,-1.4708,-1.2493,-0.6038,-0.2484,-0.9124,1.8475,1.1525,-30.34,38.29,54.48,120.63,63.87,-108.94,126305,2016-03-24 12:39:59:679
1.4971,-9.5579,-0.1915,3.0891,-9.1329,-1.7939,-0.136,-0.9609,-0.6598,-1.2891,1.7422,1.1774,-32.39,40.27,48.05,142.91,68.64,-120.15,126405,2016-03-24 12:39:59:779
4.216,-7.6576,0.0896,2.4827,-9.1993,-2.3192,0.6643,0.5065,2.0954,-1.2116,2.539,1.2074,-33.98,42.2,41.96,168.15,69.73,-133.05,126505,2016-03-24 12:39:59:879
6.455,-8.513,-2.4546,2.8925,-9.2695,-1.3715,3.6269,2.2623,1.0252,-0.071,3.3485,0.3244,-31.09,49.22,22.08,161.21,70.95,-115.37,126606,2016-03-24 12:39:59:980
1.727,-8.6734,-1.6075,3.1298,-9.2551,-0.8472,3.1761,-0.7019,-1.8405,0.3932,3.0781,0.0594,-31.5,50.19,14.66,159.45,70.69,-105.15,126706,2016-03-24 12:40:00:080
6.4519,-9.4558,1.186,3.3331,-9.2105,-0.478,-0.3791,0.6788,2.7085,-0.3593,1.5693,0.0136,-28.93,50.68,5.46,189.43,70.17,-103.13,126805,2016-03-24 12:40:00:179
3.7125,-8.9892,0.2191,3.505,-9.1576,-0.1531,0.6281,-0.3219,-0.3287,0.0494,1.5535,-0.17,-28.58,50.06,3.19,169.44,69.04,-92.5,126906,2016-03-24 12:40:00:280
3.9471,-9.0663,-0.6715,3.8423,-9.014,0.3947,2.1996,0.4084,-0.8508,0.0224,1.1169,-0.2308,-27.64,50.57,-2.87,195.91,68.11,-87.98,127011,2016-03-24 12:40:00:385
5.3771,-8.2426,-0.5659,3.8395,-9.0021,0.625,-0.7512,0.141,-1.7584,0.0102,1.0306,-0.2073,-26.99,50.8,-4.59,186.85,66.63,-80.75,127105,2016-03-24 12:40:00:479
4.9962,-12.3927,-0.1293,3.2805,-9.1985,0.8921,1.5548,0.2628,-1.1174,0.0969,0.3157,0.573,-25.12,51.41,-10.55,224.76,67.74,-77.67,127206,2016-03-24 12:40:00:580
5.8198,-12.8353,-0.9592,3.0041,-9.2988,0.8231,2.2502,-4.0016,-1.3334,-0.136,0.3344,0.5023,-22.61,54.05,-12.38,218.58,71.48,-74.68,127305,2016-03-24 12:40:00:679
7.3359,-8.1605,-1.5291,3.8636,-9.0027,-0.4411,2.4473,-2.6712,-1.0955,-1.6065,0.8685,-1.0307,-17.97,56.52,-12.52,296.75,66.64,-96.51,127406,2016-03-24 12:40:00:780
2.427,-10.8899,0.9847,5.183,-8.2484,-1.1272,-0.716,-0.5849,-0.2718,-1.593,0.5137,-2.3075,-18.31,57.25,-8.69,324.43,57.26,-102.27,127505,2016-03-24 12:40:00:879
1.658,-4.0289,-0.9031,6.9244,-5.7093,-3.9532,-2.7686,-3.1495,3.7596,-1.4231,-2.5073,-2.1944,-32.62,48.13,-0.45,323.78,35.6,-119.72,127606,2016-03-24 12:40:00:980
1.9494,-1.3165,-1.5262,6.4352,-5.0524,-5.4067,-4.9367,1.6032,4.9721,-0.7982,-2.6,-0.8396,-37.44,41.61,7.56,316.69,31.01,-130.04,127706,2016-03-24 12:40:01:080
6.9567,-18.5781,-5.6823,5.9529,-6.2759,-4.6203,-4.3771,1.4267,2.2583,1.6645,2.0063,1.5461,-36.81,40.82,16.96,316.44,32.2,-134.08,127805,2016-03-24 12:40:01:179
3.1152,-7.3005,-1.279,5.0769,-8.1064,-2.1636,0.1402,-0.0612,0.4878,0.8591,0.967,1.8327,-31.04,51.72,-1.35,294.7,55.75,-113.08,127906,2016-03-24 12:40:01:280
7.2441,-7.2464,-1.3087,4.1976,-8.7455,-1.4376,-1.5041,-1.4693,1.5665,0.8657,0.9307,1.5575,-26.23,53.79,-7.34,286.72,63.1,-108.9,128006,2016-03-24 12:40:01:380
0.9418,-8.6729,-1.6493,3.3237,-9.2244,-0.1839,1.6995,1.6033,1.6706,1.3757,-0.4746,0.8302,-17.33,56.84,-17.12,296.82,67.2,-102.84,128106,2016-03-24 12:40:01:480
7.9332,-7.6618,-1.4317,2.6928,-9.4244,0.3175,-3.597,-0.4763,-1.5744,0.6127,-0.2447,1.0141,-14.6,56.36,-19.9,266.58,73.95,-83.28,128206,2016-03-24 12:40:01:580
3.6783,-13.2282,-0.6426,2.1252,-9.57,0.2631,3.2678,-1.8803,-1.0987,-0.3587,-0.2183,0.3326,-11.35,57.97,-25.11,267.6,77.39,-82.94,128306,2016-03-24 12:40:01:680
3.4504,-10.6257,-2.9323,2.2692,-9.537,-0.2578,0.9708,-4.5714,-0.4531,-1.2629,0.2864,-0.7542,-11.2,58.68,-24.2,268.35,77.39,-82.94,128406,2016-03-24 12:40:01:780
2.4029,-13.5541,0.2058,4.6995,-8.4649,-1.5594,1.005,-3.7502,-0.2449,-1.6973,1.067,-2.1842,-11.21,60.07,-19.15,320.89,59.67,-108.36,128506,2016-03-24 12:40:01:880
3.5587,-8.5855,-1.157,5.9113,-7.4822,-2.2899,-3.7665,-3.5455,-1.0788,-0.3441,-0.8963,-2.8491,-20.44,61.52,-14.92,324.72,49.73,-111.18,128606,2016-03-24 12:40:01:980
2.9478,-5.3154,-2.514,6.7649,-5.2764,-4.7503,-3.8259,-0.4707,2.3925,-1.413,-1.5416,-2.0896,-37.68,51.72,-6.9,316.71,32.55,-125.08,128705,2016-03-24 12:40:02:079
0.2654,-2.7263,-0.5797,6.2784,-4.8768,-5.7419,-5.5649,1.9177,4.4576,-1.0374,-2.5658,-1.0123,-43.52,45.06,4.16,308.87,29.82,-132.44,128806,2016-03-24 12:40:02:180
1.5444,-1.8221,-2.1501,6.0013,-5.2747,-5.6861,-3.208,3.2468,2.4277,0.1172,-0.6627,0.2941,-43.17,41.46,14.43,308.92,29.82,-132.44,128906,2016-03-24 12:40:02:280
0.5487,-5.0595,-1.393,5.6304,-7.5206,-2.8123,-1.5733,-4.9152,-0.6838,1.9439,2.701,2.0154,-38.54,49.72,8.76,283.48,50.08,-116.54,129006,2016-03-24 12:40:02:380
4.347,-10.3003,-0.329,4.1607,-8.7665,-1.4167,-4.0722,1.6205,1.21,0.7037,0.5139,1.7605,-28.75,57.96,-11.08,302.48,56.09,-110.9,129105,2016-03-24 12:40:02:479
0.2273,-9.6148,-2.4065,3.1628,-9.2709,-0.4653,-1.6861,-0.0076,-0.1392,0.7668,0.0323,0.5632,-17.71,61.15,-17.82,296.37,68.28,-105.7,129206,2016-03-24 12:40:02:580
5.0343,-11.4864,-1.9762,2.787,-9.4011,0.1478,0.2047,-1.0306,-0.7558,0.9885,0.2036,0.5468,-14.84,61.06,-22.05,275.08,73.47,-86.96,129305,2016-03-24 12:40:02:679
3.7475,-11.2214,0.0166,2.0471,-9.5828,0.3866,2.4676,-2.2309,-1.6423,-0.0199,0.0587,0.5277,-10.06,58.64,-28.62,265.01,77.74,-79.31,129406,2016-03-24 12:40:02:780
5.1404,-9.6947,-1.3948,2.2356,-9.5484,0.0071,2.9227,-2.5893,-0.6236,-0.6185,0.1267,-0.2361,-8.39,59.64,-27.94,269.97,77.74,-79.31,129506,2016-03-24 12:40:02:880
0.7206,-12.8584,-3.9842,4.7901,-8.3936,-1.6653,-0.6449,-2.7171,0.4137,-1.6529,0.1197,-2.5844,-13.07,61.16,-20.9,300.71,69.7,-103.59,129606,2016-03-24 12:40:02:980
7.4816,-11.5509,-0.0484,6.1808,-7.1349,-2.6574,-3.8567,-4.3623,-0.7231,-1.5075,-0.7699,-3.1339,-22.77,59.89,-14.81,307.47,58.86,-109.17,129706,2016-03-24 12:40:03:080
0.6382,-2.7407,0.0681,6.1142,-5.0727,-5.7494,-5.2564,2.1659,5.3124,-0.893,-2.777,-0.7583,-38.64,46.83,4.23,315.37,31.15,-133.24,129805,2016-03-24 12:40:03:179
2.9125,-3.7672,-3.5241,5.6479,-5.2214,-6.0834,-4.3445,2.2899,5.912,0.5204,-0.583,0.2445,-39.23,44.61,14,314.15,32.17,-137.13,129906,2016-03-24 12:40:03:280
8.7053,-9.0338,-3.2687,5.6613,-7.3202,-3.2458,4.6338,-8.9499,-0.2797,1.9473,1.9153,1.4365,-37.51,50.85,7.48,313.8,38.99,-130.62,130006,2016-03-24 12:40:03:380
0.8673,-11.0247,0.4726,5.179,-8.0792,-2.0185,-1.6456,2.5382,-0.3804,1.3281,1.1066,1.3514,-31.29,55.54,-5.56,313.27,48.28,-119.83,130106,2016-03-24 12:40:03:480
5.3968,-6.952,0.5006,3.7652,-9.0107,-0.8947,2.0247,-0.0722,-1.7045,0.1008,0.5581,1.0633,-18.85,59.53,-15.9,307.46,62.08,-105.59,130205,2016-03-24 12:40:03:579
2.6303,-8.8028,-0.2943,3.4351,-9.1709,-0.5141,1.5538,1.9676,1.3183,0.7898,0.3631,0.3877,-16.08,59.58,-17.48,302.69,66.76,-103.37,130305,2016-03-24 12:40:03:679
4.553,-10.6937,-0.916,2.7319,-9.4079,0.4448,-0.5453,-0.6953,-1.6271,0.3454,0.2356,0.7194,-12.5,59.2,-23.23,285.3,71.24,-88.81,130406,2016-03-24 12:40:03:780
5.0335,-11.1996,-0.6951,1.9158,-9.5954,0.6552,2.4478,-2.9826,-2.0059,0.3221,0.4042,0.9045,-7.41,58.56,-25.6,271.01,76.17,-73.47,130506,2016-03-24 12:40:03:880
4.472,-8.8007,0.0823,2.2611,-9.5415,0.1316,4.5473,-1.7569,-1.0906,-0.2851,-0.2424,0.2378,-4.86,59.21,-26.98,285.2,76.65,-86.67,130605,2016-03-24 12:40:03:979
1.4814,-13.5798,-4.2207,4.8301,-8.4287,-1.3409,-0.7238,-2.0682,1.4435,-1.6268,0.7785,-2.4577,-7.89,58.95,-21.38,321.73,59.26,-105.52,130705,2016-03-24 12:40:04:079
3.1735,-7.679,-1.9123,6.221,-7.2575,-2.1907,0.5008,-3.0548,1.0541,-1.7304,0.4847,-2.449,-15.51,59.34,-17.7,325.91,47.74,-109.4,130805,2016-03-24 12:40:04:179
1.4344,-3.2864,-0.1859,6.455,-5.1036,-5.3345,-4.9722,1.94,5.0553,-1.2913,-2.9344,-1.69,-33.37,46.16,-2.34,318.57,37.05,-118.45,130905,2016-03-24 12:40:04:279
4.2802,-2.7354,-1.6437,5.9045,-5.071,-5.9659,-4.627,2.7479,4.299,-0.3694,-2.28,-0.3977,-35.99,42.68,8.02,319.49,31.36,-129.57,131007,2016-03-24 12:40:04:381
9.5911,-17.6537,-5.6221,5.7343,-7.0687,-3.6498,-1.218,-4.0959,-1.0822,1.7521,2.1598,1.584,-33.86,42.51,11.51,317.73,36.59,-130.92,131106,2016-03-24 12:40:04:480
3.9436,-10.5526,1.0878,5.153,-7.9529,-2.5236,4.2421,-5.0486,-1.4089,1.491,1.5424,1.8978,-31.65,48.27,3.7,311.61,46.12,-122.48,131205,2016-03-24 12:40:04:579
5.0063,-7.5007,-0.6251,3.5775,-9.042,-1.2703,1.0906,-0.9609,1.5452,0.7694,0.4881,1.5931,-18.05,54.16,-5.81,301.36,67.22,-109.55,131305,2016-03-24 12:40:04:679
-0.2991,-9.6907,-2.4738,3.0634,-9.2909,-0.6824,2.123,1.1573,0.0506,0.9415,0.0735,1.0065,-13.88,54.99,-8.61,312.12,67.22,-109.55,131405,2016-03-24 12:40:04:779
5.2191,-9.3316,-1.7764,2.184,-9.5551,0.3168,-2.0788,-1.0178,-1.9262,0.6618,0.2203,0.7608,-10.15,54.17,-16.51,270.49,77,-81.75,131505,2016-03-24 12:40:04:879
4.7923,-12.3117,-1.2253,1.8526,-9.6187,0.4679,6.7657,-0.6109,-2.8019,0.313,0.0328,0.7074,-7.85,54.36,-17.57,264.8,78.76,-75.83,131606,2016-03-24 12:40:04:980
4.0921,-9.952,-0.9695,2.4149,-9.5022,-0.2174,1.4672,-2.4326,-0.8195,-1.0611,-0.1117,-1.0632,-3.23,55.01,-20.3,279.57,79.12,-77.25,131706,2016-03-24 12:40:05:080
2.0872,-12.2643,-3.353,4.883,-8.3759,-1.4732,0.872,-3.3368,-1.3212,-0.9389,-0.3613,-2.4824,-13.72,57.51,-15.28,304.71,68.08,-104.03,131806,2016-03-24 12:40:05:180
4.4155,-8.1883,-0.5116,6.0818,-7.3088,-2.4007,-2.1923,-3.1679,1.4494,-1.0844,-1.2241,-2.7346,-23.27,54.2,-11.29,304.92,58.66,-106.79,131905,2016-03-24 12:40:05:279
-0.5339,-2.2774,-0.684,6.0937,-5.7934,-5.047,-4.1233,2.055,3.8788,-0.4447,-2.2775,-0.4742,-35.62,40.26,6.74,305.67,39.76,-120,132006,2016-03-24 12:40:05:380
3.1717,-3.4319,-2.6721,5.7403,-6.0238,-5.1897,-5.1901,3.7995,4.1078,0.7997,-0.1787,0.3549,-34.47,37.16,13.77,309.87,36.21,-129.63,132106,2016-03-24 12:40:05:480
13.732,-13.9455,-3.2624,5.2168,-7.9396,-2.4326,-1.6679,-0.8035,-0.8281,1.453,1.1437,1.4677,-35.04,43.71,2.82,298.08,45.28,-124.46,132205,2016-03-24 12:40:05:579
1.7364,-9.6414,0.3439,4.4814,-8.532,-1.8144,6.7323,-6.3071,-1.9479,0.7119,-0.0203,1.6481,-30.66,47.64,-2.01,292.28,54.06,-115,132305,2016-03-24 12:40:05:679
5.9474,-7.9637,-1.3686,2.8572,-9.3262,-1.0142,2.1716,0.9248,-1.4208,0.9509,-1.0925,0.8536,-21.62,52.53,-7.73,266.98,71.99,-109.54,132405,2016-03-24 12:40:05:779
0.9508,-8.5719,-0.8321,2.6311,-9.4345,-0.4879,1.0421,1.5582,0.4154,1.1544,-0.3122,-0.0082,-18.82,52.24,-10.39,261.32,74.16,-100.5,132505,2016-03-24 12:40:05:879
4.633,-9.9169,-2.3511,2.0584,-9.5724,0.5494,2.0777,0.3403,-2.0619,0.8942,0.0193,0.6499,-19.24,49.67,-11.97,261.71,74.16,-100.5,132606,2016-03-24 12:40:05:980
5.2291,-11.2535,-0.027,1.6198,-9.6384,0.8045,3.0182,-1.1553,-3.0256,0.6295,-0.0949,0.7018,-18.01,51.17,-13.87,223.32,77.45,-75.05,132706,2016-03-24 12:40:06:080
5.7836,-9.1945,-1.3631,1.5818,-9.6607,0.5826,3.403,-1.6081,-2.2682,0.1233,-1.2618,0.1407,-15.36,49.32,-15.82,201.9,80.34,-56.71,132805,2016-03-24 12:40:06:179
4.0656,-9.1818,3.7143,2.177,-9.5586,-0.2527,3.4744,0.2224,-1.123,-0.7189,-1.6239,-0.5822,-16.58,47.32,-11.99,251.64,77.09,-96.62,132905,2016-03-24 12:40:06:279
3.7118,-9.7789,0.6777,3.9049,-8.8946,-1.3446,-2.2273,-1.3136,5.022,-0.2558,-1.1515,-1.5051,-24.71,39.12,0.84,212.23,71.67,-107.82,133006,2016-03-24 12:40:06:380
2.9744,-7.5252,1.0754,4.8842,-8.2995,-1.8529,-2.3629,0.5651,3.2743,0.7861,-2.4454,-1.4843,-29.14,27.95,8.43,195.06,57.81,-110.78,133105,2016-03-24 12:40:06:479
0.6977,-6.7177,-0.8475,5.1968,-8.0019,-2.2657,-3.7881,1.279,3.2441,1.2203,-2.2814,-0.6806,-27.87,22.98,12.41,180.94,54.68,-113.56,133206,2016-03-24 12:40:06:580
5.836,-8.7848,-5.8722,3.7509,-8.8405,-1.9864,1.1367,-0.806,-3.1984,1.4859,-2.6463,1.0469,-26.2,24.54,20.35,151.78,59.38,-113.68,133306,2016-03-24 12:40:06:680
-1.7926,-10.9351,-0.7916,3.4291,-9.0272,-1.7088,1.3778,1.7439,3.5388,1.119,-2.3101,0.3625,-20.86,27.63,22.67,143.75,64.35,-117.9,133406,2016-03-24 12:40:06:780
7.2567,-8.0932,0.6048,2.6966,-9.3649,-1.0946,2.6733,-3.5236,-0.3856,0.86,-1.9104,0.5795,-16.83,30.47,26.15,127.65,69.84,-112.14,133505,2016-03-24 12:40:06:879
1.9304,-9.5037,-1.1063,2.5646,-9.4393,-0.7013,3.2025,2.442,2.5624,1.2153,-2.4374,0.1845,-12.84,32.07,27.25,114.38,74.27,-105.29,133606,2016-03-24 12:40:06:980
2.6713,-9.2046,1.2524,2.4775,-9.4883,0.0733,0.7055,0.1387,-0.5077,1.0149,-1.9279,0.1251,-4.58,36.66,26.3,84.84,75.07,-95.56,133706,2016-03-24 12:40:07:080
2.5328,-9.0125,0.8702,2.4788,-9.4828,0.3213,0.4601,0.018,0.8677,0.7994,-1.6614,0.0867,-1.8,37.86,24.73,66.53,75.23,-82.62,133805,2016-03-24 12:40:07:179
4.0532,-9.1675,-1.2118,2.3963,-9.4946,0.5304,1.0816,0.0137,-0.7311,0.2549,-1.0085,0.1949,1.29,38.97,22.32,54.48,75.17,-78.32,133905,2016-03-24 12:40:07:279
5.2729,-10.094,-4.573,2.4769,-9.4851,0.2609,2.7326,-0.8967,-1.3745,-0.1802,-1.2186,-0.0929,3.5,38.63,21.98,50.46,75.51,-77.52,134005,2016-03-24 12:40:07:379
1.5966,-9.7155,1.687,3.2524,-9.0041,-2.1255,-0.1106,-0.9261,0.329,-2.1543,-0.7282,-1.2058,5.18,35.38,24.15,69.46,73.1,-104.2,134105,2016-03-24 12:40:07:479
3.8848,-8.5631,-0.688,3.9848,-8.4732,-2.9151,-1.557,-1.2844,3.5125,-0.9131,-0.1619,-1.4158,2.4,33.02,26.37,77.92,59.77,-126.19,134205,2016-03-24 12:40:07:579
2.3932,-6.58,-2.4048,4.9449,-7.9159,-3.0094,-2.5414,0.2033,1.3774,0.6361,-0.5565,-0.7163,-1.7,29.68,27.46,81.35,55.58,-123.63,134306,2016-03-24 12:40:07:680
2.0695,-5.9169,-2.5594,5.0453,-7.9166,-2.836,-2.2754,1.2338,-0.2505,0.705,-0.5078,-0.253,-2.58,30,27.87,80.13,53.82,-121.32,134407,2016-03-24 12:40:07:781
2.817,-6.2276,-2.1047,4.609,-8.3945,-2.112,-2.7252,1.7077,0.3107,0.7623,0.459,0.8135,-1.14,30.9,27.1,76.89,58.87,-114.62,134506,2016-03-24 12:40:07:880
5.0396,-6.9742,-2.6082,3.9276,-8.9126,-1.1446,0.7985,1.7105,-0.7779,0.8234,0.1314,0.8265,-1.78,32.59,26.44,74.71,58.87,-114.62,134606,2016-03-24 12:40:07:980
2.2886,-9.3542,-5.4507,3.8075,-8.9971,-0.8517,-1.2175,0.1194,-3.7179,0.8463,-0.2386,0.1151,0.78,31.45,26.56,75.17,65.34,-106.25,134705,2016-03-24 12:40:08:079
9.0249,-18.8542,-8.4511,3.8742,-9.0039,-0.3025,3.3752,-5.5344,-2.8905,0.6623,-0.4252,-0.0921,3.73,33.74,28.41,61.8,66.66,-94.46,134805,2016-03-24 12:40:08:179
-0.9851,-8.7222,1.3082,4.015,-8.9457,-0.1566,-0.7117,-1.5286,0.9807,0.5024,-0.0919,-0.1978,4.31,34.91,28.27,61.18,66.66,-94.46,134905,2016-03-24 12:40:08:279
7.123,-6.9122,-2.8024,3.5594,-9.1263,0.4605,1.2582,0.0601,-1.7847,0.6842,0.2388,0.5883,4.32,34.68,31.8,60.35,66.62,-88.83,135006,2016-03-24 12:40:08:380
1.7916,-6.4217,-0.6573,3.4309,-9.1786,0.3906,3.1358,2.4257,-3.8466,0.3753,-0.1458,0.4833,4.84,35.55,29.5,52.92,68.53,-82.63,135106,2016-03-24 12:40:08:480
7.5768,-5.4622,-3.8734,3.8916,-8.9894,-0.4648,-0.1973,2.6599,0.4134,-1.1299,0.9514,-0.4699,6.1,35.43,31.58,60.67,69.11,-90.18,135206,2016-03-24 12:40:08:580
6.3694,-13.4042,-2.0387,4.7564,-8.4282,-1.5851,2.1963,2.2896,-2.2348,-1.6945,0.2737,-1.2145,4.53,33.55,33.76,70.14,59.25,-108.43,135306,2016-03-24 12:40:08:680
3.0938,-8.6487,-1.7565,6.0752,-6.8473,-3.5181,-0.5352,-6.9513,2.5084,-1.2884,-0.4982,-1.3508,2.66,25.44,44.6,85.93,49.34,-116.75,135406,2016-03-24 12:40:08:780
0.965,-3.2909,-2.0443,5.8506,-7.045,-3.5085,-5.0606,1.6853,1.3675,0.067,-0.2451,0.2204,3.01,21.11,46.95,91.24,45.92,-120.95,135506,2016-03-24 12:40:08:880
8.7639,-8.129,-4.7246,4.5708,-8.51,-1.6904,2.2362,0.5879,-0.3666,1.5978,0.8251,1.6353,3.85,28.06,48.3,86.64,60.2,-110.3,135605,2016-03-24 12:40:08:979
4.9289,-10.6385,-7.9938,4.1111,-8.88,-0.6445,3.7183,1.2955,-3.9832,1.8682,0.1433,0.9284,4.03,33.88,47.79,82.99,60.2,-110.3,135706,2016-03-24 12:40:09:080
13.1474,-18.9513,-5.4338,3.7734,-9.038,0.4962,-0.4398,-4.9566,3.307,0.9256,0.3151,0.1677,7.8,47.59,43.79,53.75,67.16,-82.51,135805,2016-03-24 12:40:09:179
-0.1725,-6.0777,2.0217,3.6185,-9.0859,0.7231,-2.4491,3.9089,2.474,0.2948,-0.0072,0.1899,6.72,53.16,39.39,48.76,67.27,-80.6,135906,2016-03-24 12:40:09:280
7.3265,-4.7703,-4.967,3.3658,-9.1546,1.0172,-2.1558,-0.6652,-0.0085,0.3587,0.0819,0.4053,5.9,54.05,37.84,44.71,68.99,-73.18,136006,2016-03-24 12:40:09:380
3.9026,-6.9608,1.4944,3.4591,-9.1758,0.0971,1.2594,2.9215,-2.1684,-0.3965,-0.394,-0.1078,8.12,54.35,38.69,54.58,69.34,-88.39,136106,2016-03-24 12:40:09:480
4.8516,-10.5733,-3.5538,3.9168,-8.9737,-0.5495,0.6659,2.4157,1.749,-1.6739,0.0927,-1.0921,8.47,53.39,38.6,59.22,66.21,-97.99,136205,2016-03-24 12:40:09:579
6.5257,-14.9901,-0.0648,5.7866,-7.0402,-3.6223,3.4001,-8.6562,4.629,-1.7548,-1.3397,-1.8643,0.28,39.38,52.28,80.54,45.88,-122.05,136306,2016-03-24 12:40:09:680
-0.0552,-3.3129,-0.854,5.9325,-6.5822,-4.2013,-4.4383,-0.4759,3.3553,0.0977,-0.6158,-0.4359,1.22,31.86,55.13,86.31,42.16,-125.31,136406,2016-03-24 12:40:09:780
4.301,-8.1359,-2.6799,4.9983,-8.0104,-2.6498,-2.6771,2.3443,0.3249,1.9036,0.6438,1.9676,1.17,37.32,52.47,87.32,54.77,-117.93,136506,2016-03-24 12:40:09:880
5.1286,-8.2372,-3.7258,4.2691,-8.6733,-1.649,2.0166,-0.1501,-1.6099,1.6174,-0.322,0.9053,2.11,45.19,51.02,82.45,62.18,-111.12,136606,2016-03-24 12:40:09:980
7.8052,-15.2679,-0.8491,3.9113,-8.9848,-0.3814,0.5073,0.2549,-3.7726,0.9579,0.5437,0.2477,4.71,50.73,46.8,66.23,66.38,-95.57,136705,2016-03-24 12:40:10:079
4.2162,-15.1476,-2.4571,3.8479,-9.0198,-0.078,3.6086,-6.7605,-1.0595,0.7556,0.209,0.0823,3.8,58.37,45.22,60.4,66.89,-91.16,136806,2016-03-24 12:40:10:180
1.7142,-7.3546,0.2308,3.5869,-9.1075,0.5987,0.6595,-5.008,-1.4953,0.7731,-0.0485,0.197,2.7,60.19,41.33,55.29,67.28,-86.54,136906,2016-03-24 12:40:10:280
4.4108,-7.311,-1.3309,3.2804,-9.2036,0.8384,-1.7542,1.3294,-0.2626,0.1364,0.1625,0.4963,4.08,62.91,37,45.72,69.8,-75.66,137006,2016-03-24 12:40:10:380
3.0765,-6.0176,0.9807,3.0756,-9.3002,0.4669,0.708,5.2111,-3.3144,-0.1435,-0.2487,0.2485,5.16,62.59,34.75,48.78,71.51,-81.37,137106,2016-03-24 12:40:10:480
2.9884,-6.9577,-4.304,4.5053,-8.6761,-0.7733,1.0011,1.4842,-4.0575,-1.1399,0.7078,-1.3327,3.99,58.71,40.22,57.54,68.93,-89.28,137206,2016-03-24 12:40:10:580
2.7569,-10.3745,0.0859,5.5118,-7.8031,-2.214,2.1597,-6.5895,0.4497,-2.5558,-0.191,-2.0867,-0.23,55.07,44.52,64.44,52.72,-111.88,137305,2016-03-24 12:40:10:679
2.2461,-5.866,-0.1613,5.5511,-7.4461,-3.1482,-2.6618,-0.6658,2.2476,-0.123,-0.1185,0.2966,-4.3,40.29,56.46,84.31,47.29,-118.86,137406,2016-03-24 12:40:10:780
6.0296,-7.0986,-3.5222,4.7595,-8.2167,-2.4503,-2.5822,3.693,1.5629,1.0862,0.2853,1.5676,-2.25,39.87,56.86,86.05,49.4,-119.56,137506,2016-03-24 12:40:10:880
4.0354,-6.7194,-2.7238,3.6649,-9.0158,-1.2061,3.1587,1.4525,-3.1696,0.9979,-0.0732,0.6389,0.82,51,51.29,83.7,63.86,-113.26,137605,2016-03-24 12:40:10:979
7.3448,-14.972,-1.174,3.6563,-9.069,-0.7455,0.2019,1.4131,-1.2672,0.6202,0.5058,0.0769,1.89,53.16,50.56,80.81,66.83,-108.22,137706,2016-03-24 12:40:11:080
6.2483,-14.4878,-1.1778,3.7478,-9.0614,-0.1224,2.1894,-5.083,-1.507,0.6299,-0.3783,-0.05,0.09,56.95,47.88,67.02,67.52,-91.87,137806,2016-03-24 12:40:11:180
0.6509,-7.7846,0.7364,3.6451,-9.102,0.1949,-1.11,-0.3746,1.1237,0.4996,-0.0052,0.1706,1,58.39,46.61,65.24,67.52,-91.87,137907,2016-03-24 12:40:11:281
4.2573,-5.3281,-2.1901,3.0441,-9.2944,0.7199,1.6144,2.6271,-2.4571,0.1983,-0.3315,0.4623,6.31,59.1,40.79,49.16,71.4,-76.7,138005,2016-03-24 12:40:11:379
5.0849,-6.5204,0.4989,3.0486,-9.3171,0.2607,0.068,3.5117,-2.8964,-0.7672,-0.2059,-0.0643,9.05,59.29,39.26,51.7,71.82,-85.11,138106,2016-03-24 12:40:11:480
8.1516,-13.2243,-3.3233,4.6439,-8.4858,-1.6111,4.873,2.4667,-4.1282,-3.0682,-0.6367,-2.7128,8.09,54.82,44.74,62.4,69.81,-93.7,138205,2016-03-24 12:40:11:579
4.093,-11.9393,-0.4986,5.4411,-7.3382,-3.5661,1.0828,-6.7735,0.6129,-2.2151,-2.0178,-1.64,2.18,41.86,54.49,81.88,59.92,-109.13,138305,2016-03-24 12:40:11:679
2.5642,-5.6741,-2.5068,5.1939,-7.5622,-3.465,-3.8556,-0.0646,1.2982,1.2289,1.1259,1.2963,6.15,36.02,57.92,86.48,45.88,-127.62,138406,2016-03-24 12:40:11:780
4.203,-6.6246,-3.9582,3.9259,-8.8945,-1.2826,0.897,0.4637,-2.2679,1.7449,-0.073,0.5999,4.14,48.36,52.01,79.91,65.09,-108.09,138506,2016-03-24 12:40:11:880
4.7668,-7.7884,-4.4741,3.7213,-9.0519,-0.6209,1.2094,1.3247,-4.3633,0.5841,0.6953,0.3122,5.84,54.4,48.75,73.76,65.09,-108.09,138606,2016-03-24 12:40:11:980
7.5777,-15.3415,2.8693,3.7056,-9.0794,-0.0563,2.1727,-2.8461,-1.2111,0.2078,0.8826,-0.0809,4.39,57.47,44.53,63.6,67.89,-93.76,138706,2016-03-24 12:40:12:080
6.6617,-15.0369,-1.4029,3.6945,-9.0818,0.2036,1.6746,-2.8542,0.163,0.6433,-1.1799,0.0614,3.42,58.64,45.04,58.6,67.83,-86.85,138807,2016-03-24 12:40:12:181
3.3746,-9.5907,-0.2532,3.4571,-9.1571,0.6051,-2.3362,0.6241,0.9933,0.0695,-0.0788,0.1133,5.53,62.84,38.22,48.55,67.88,-84.14,138905,2016-03-24 12:40:12:279
4.8889,-5.5589,-3.0996,3.1325,-9.2461,0.9315,0.2401,-0.099,-1.2606,0.6919,0.0125,0.5597,7.27,61.76,38.62,43.36,70.53,-73.44,139006,2016-03-24 12:40:12:380
5.1403,-7.1448,-1.3446,3.1717,-9.2711,0.3974,0.2257,3.6812,-2.1597,-0.6068,-0.1902,-0.0475,15.11,63.09,32.75,38.74,70.98,-82.86,139105,2016-03-24 12:40:12:479
4.7244,-9.7304,-2.0106,3.8651,-9.0099,-0.231,0.771,2.3391,-1.0395,-1.0195,0.6142,-0.8387,16.81,62.27,33.15,41.59,66.74,-93.42,139205,2016-03-24 12:40:12:579
2.9043,-9.6935,-1.2923,5.4199,-7.5874,-3.0376,-0.6789,-3.9676,1.4659,-2.1947,-1.389,-1.7743,10.42,59.66,40.52,54.26,50.69,-119.27,139305,2016-03-24 12:40:12:679
2.572,-6.7024,-2.6447,5.3805,-7.4868,-3.3419,-3.5898,-1.0752,2.1725,-0.5126,-0.8889,-0.4408,8.64,56.9,44.51,60.29,49.77,-121.84,139406,2016-03-24 12:40:12:780
4.0666,-5.8727,-3.1458,4.6996,-8.3716,-2.0003,-0.1796,0.9149,-1.8257,1.058,0.7638,1.0566,11.83,58.32,41.03,56.62,53.44,-118.06,139506,2016-03-24 12:40:12:880
7.0827,-6.4604,-4.4413,4.0801,-8.874,-0.8803,0.2316,1.7963,-3.5871,0.3752,1.0806,0.501,14.13,63.75,32.91,46.57,64.81,-102.17,139606,2016-03-24 12:40:12:980
7.9637,-10.5696,4.8764,4.2205,-8.8342,-0.5608,3.0086,1.7438,-3.1784,-0.0975,1.6043,-0.0148,13.7,65.94,30.86,43.9,64.81,-102.17,139705,2016-03-24 12:40:13:079
2.023,-15.3272,2.5962,4.6314,-8.5904,0.9621,-4.2352,-5.4698,-3.4756,0.7428,0.7748,-0.5017,10.99,70.5,28.23,27.35,61.16,-78.26,139806,2016-03-24 12:40:13:180
1.1043,-8.2901,0.577,4.5738,-8.5744,1.3152,-1.4056,-6.0301,1.7664,0.2023,0.8087,-0.0577,10.95,72,25.08,22.68,60.97,-73.96,139906,2016-03-24 12:40:13:280
2.6609,-7.5981,-1.9197,3.7438,-8.7787,2.2558,-0.5922,-0.0796,1.0808,-0.2395,2.2217,0.3622,11.62,73.82,26.01,16.52,63.53,-58.93,140006,2016-03-24 12:40:13:380
3.9773,-7.7144,0.8495,3.2663,-8.9099,2.4728,-0.4521,0.9207,-2.7531,-0.2907,1.7962,0.3133,9.91,74.24,28.47,19.35,63.53,-58.93,140106,2016-03-24 12:40:13:480
4.8895,-9.7828,0.1784,2.5753,-9.0925,2.62,2.5073,-0.3629,-0.5867,-0.3308,1.9433,0.1106,7.11,74.39,34.69,21.56,66.79,-48.93,140205,2016-03-24 12:40:13:579
5.6568,-8.86,1.0205,2.3427,-9.1787,2.5366,3.1324,-0.4162,-2.6314,-0.697,1.6733,-0.0495,5.51,73.05,39.37,22.01,68,-44.51,140306,2016-03-24 12:40:13:680
2.8356,-10.7568,-1.8276,3.0271,-9.1908,1.5927,-0.0394,-1.3752,-3.2196,-1.9115,0.4544,-1.085,1.36,72.01,48.49,31.57,69.62,-47.27,140406,2016-03-24 12:40:13:780
-0.9676,-11.9956,-2.8682,3.6722,-9.074,0.5893,-1.7171,-2.8081,-1.1846,-2.5071,2.5663,-1.3282,-0.41,67.15,58.52,46.75,69.59,-62.25,140505,2016-03-24 12:40:13:879
2.5723,-7.3919,-1.7666,5.4245,-8.1366,-0.7346,-1.2895,-2.0103,0.4829,-1.5274,0.6666,-1.3611,-21.61,37.09,76.45,93.29,62.45,-91.65,140605,2016-03-24 12:40:13:979
1.7736,-5.6516,-1.9137,5.864,-7.7387,-1.3774,-3.0199,0.0187,0.0951,-1.3826,-0.2042,-0.4437,-25.03,27.6,80.16,100.33,56.07,-97.71,140706,2016-03-24 12:40:14:080
8.3818,-4.0579,-2.262,5.6237,-7.7929,-1.9532,-2.9049,1.9432,0.0686,-0.9801,0.8917,0.6064,-21.35,19.92,83.23,109.46,52.62,-109.15,140806,2016-03-24 12:40:14:180
9.6367,-6.0705,-4.8452,5.5523,-7.9222,-1.6067,4.3129,0.885,-3.9655,-0.0153,0.9144,0.3727,-28.95,13.25,82.43,116.92,53.67,-108.08,140906,2016-03-24 12:40:14:280
2.3935,-9.0694,-3.7845,5.5762,-7.9178,-1.5444,0.1531,1.2536,-4.1252,-0.0081,0.5063,0.0074,-31.63,15.94,83.36,115.02,53.84,-105.48,141006,2016-03-24 12:40:14:380
-4.4886,-3.6406,2.9508,5.3518,-8.1576,-0.9912,-6.9097,-0.8509,2.2943,-0.6628,1.7862,0.3231,-25.85,23.96,83.9,107.52,54.01,-104.76,141105,2016-03-24 12:40:14:479
5.7285,-9.3319,-2.3133,4.8169,-8.5421,0.022,-4.918,-0.5545,4.165,-0.3274,2.9711,1.1102,-26.92,26.3,79.57,97.42,60.58,-89.74,141205,2016-03-24 12:40:14:579
5.0492,-8.5173,2.054,3.8338,-9.0091,0.5548,0.7487,0.6721,0.4743,-0.7646,1.6568,0.8323,-42.27,34.81,67.85,101.87,66.73,-81.77,141306,2016-03-24 12:40:14:680
4.9172,-7.9039,-0.3807,3.8295,-8.9977,0.7391,2.205,0.7338,0.7332,-0.4239,1.4925,0.0337,-45.94,35.81,62.93,105.65,66.73,-81.77,141406,2016-03-24 12:40:14:780
5.2258,-7.2278,-0.5811,3.6776,-9.0446,0.9172,1.1105,0.8443,-0.8319,-0.325,1.0109,0.1722,-50.66,37.93,48.98,108.48,67.26,-76,141505,2016-03-24 12:40:14:879
3.4494,-6.2254,-1.5848,3.5551,-9.0969,0.8824,1.6994,1.9073,-1.3999,-0.2489,0.6144,0.2294,-47.26,40.96,43.87,106.87,67.26,-76,141606,2016-03-24 12:40:14:980
2.7251,-8.4124,-1.4414,3.6404,-9.104,0.1857,-0.8604,0.7316,-1.0642,-0.7177,0.0651,-0.1025,-36.09,49.43,28.89,106.49,68.2,-80.35,141706,2016-03-24 12:40:15:080
4.2826,-5.6197,-1.3969,3.8259,-9.0236,-0.3275,1.3456,1.7152,-2.1595,-1.1251,0.7708,-0.2299,-32.57,53.97,18.97,114.99,68.18,-87.08,141806,2016-03-24 12:40:15:180
6.1072,-15.5159,0.7596,4.5915,-8.3892,-2.1701,1.9927,-0.2932,1.7587,-1.6096,-0.3552,-1.0531,-33.36,64.06,3.11,256.11,64.34,-106.38,141906,2016-03-24 12:40:15:280
3.1486,-13.9109,-6.2235,5.2407,-7.8721,-2.5952,-1.9151,-9.8404,-0.0284,-0.6007,-0.1424,-1.4439,-37.88,65.9,0.61,286.09,58.81,-115.3,142005,2016-03-24 12:40:15:379
2.8056,-6.9686,-2.5243,6.0479,-7.0382,-3.1713,-0.8749,-2.9731,-2.315,-0.8692,-0.175,-0.6387,-49.89,59.01,-6.91,282.89,49.44,-115.49,142106,2016-03-24 12:40:15:480
1.3191,-3.3343,-2.3769,6.0062,-6.5787,-4.1009,-4.2745,1.0132,1.4424,-0.6106,-0.1062,0.3662,-50.12,54.37,1.6,291.83,42.94,-121.26,142206,2016-03-24 12:40:15:580
