ACCELEROMETER X (m/s²),ACCELEROMETER Y (m/s²),ACCELEROMETER Z (m/s²),GRAVITY X (m/s²),GRAVITY Y (m/s²),GRAVITY Z (m/s²),LINEAR ACCELERATION X (m/s²),LINEAR ACCELERATION Y (m/s²),LINEAR ACCELERATION Z (m/s²),GYROSCOPE X (rad/s),GYROSCOPE Y (rad/s),GYROSCOPE Z (rad/s),MAGNETIC FIELD X (μT),MAGNETIC FIELD Y (μT),MAGNETIC FIELD Z (μT),ORIENTATION Z (azimuth °),ORIENTATION X (pitch °),ORIENTATION Y (roll °),Time since start in ms ,YYYY-MO-DD HH-MI-SS_SSS
1.2214,-10.5575,3.7109,-1.3365,-9.6487,-1.1346,-5.5866,-4.6749,0.7936,-2.4028,0.0206,-1.6936,18.64,46.47,17,254.19,76.68,82.27,121003,2016-04-11 18:03:00:075
-3.0003,-5.8753,0.1645,0.768,-9.3553,-2.8388,-2.8052,2.2374,2.5637,-1.1658,0.0199,-1.837,8.73,42.81,27,121.72,72.55,-164.86,121103,2016-04-11 18:03:00:175
-5.0362,-2.1121,-1.0828,0.7626,-9.2047,-3.2958,-3.8532,5.2711,4.8428,-0.7843,-1.9338,-1.0078,5.21,41.29,31.71,140.38,72.55,-164.86,121204,2016-04-11 18:03:00:276
4.9989,-17.5071,-11.5802,-0.1525,-9.4535,-2.6035,4.0486,-4.2942,-8.4101,0.7634,-1.0126,0.3878,10.6,39.67,31.96,156.32,74.58,176.65,121303,2016-04-11 18:03:00:375
-13.1778,-13.6629,-2.8051,-0.0431,-9.4126,-2.7515,1.6622,-2.0427,-3.1389,-0.2014,-0.2828,-0.229,13.49,40.37,28.7,147.93,74.58,176.65,121403,2016-04-11 18:03:00:475
-4.8726,-9.3998,2.1604,-1.0742,-9.6241,-1.5472,-2.4399,3.9457,5.2583,1.5085,1.4974,1.5193,11.71,40.8,27.51,153.22,75.49,174.05,121504,2016-04-11 18:03:00:576
0.5153,-7.8516,1.4162,-2.0459,-9.5579,-0.7946,-1.4643,-2.0389,1.3403,1.0425,-0.3656,1.4421,13.61,42.97,25.77,237.38,77.07,111.22,121603,2016-04-11 18:03:00:675
-2.7953,-9.4359,2.911,-2.2054,-9.53,0.6968,2.1011,1.3366,-0.6697,1.6237,1.7632,-0.0648,18.04,45.84,17.86,268.58,76.36,72.47,121703,2016-04-11 18:03:00:775
0.5181,-11.088,1.2665,-2.5488,-9.4177,0.99,-0.8526,-0.367,-4.4368,0.844,1.2219,0.479,16.61,48.11,14.39,278.97,73.81,68.77,121803,2016-04-11 18:03:00:875
4.5598,-9.7126,-0.4283,-3.3456,-9.0598,1.7023,7.0672,-1.2903,-3.7242,0.4619,0.2412,0.4536,20.01,47.24,10.08,279.84,69.87,65.36,121903,2016-04-11 18:03:00:975
0.3442,-12.6322,-3.3324,-2.5402,-9.4595,0.486,2.6605,-2.95,-3.9076,-2.2985,-0.205,-1.1982,20.89,47.19,9.43,279.71,68.93,64.05,122003,2016-04-11 18:03:01:075
-6.376,-13.1622,0.9486,-1.594,-9.6192,-1.0495,-3.0788,-3.3249,2.423,-2.2717,0.3312,-1.6329,16.08,45.23,17.5,269.92,74.71,79.17,122103,2016-04-11 18:03:01:175
-1.2234,-9.1818,-0.8004,0.5095,-9.4222,-2.6709,-0.6353,-1.5479,1.4995,-1.6677,-1.2139,-1.6431,4.68,43.18,28.52,144.58,73.9,-169.2,122203,2016-04-11 18:03:01:275
-3.5459,-1.7654,1.4973,0.6632,-9.1361,-3.5018,-2.8636,3.1012,3.8729,-0.7798,-2.4102,-0.6407,3.22,38.69,33.39,155.24,73.9,-169.2,122303,2016-04-11 18:03:01:375
2.7073,-14.8675,-12.4949,-0.4285,-9.3689,-2.8653,-3.3338,6.8123,1.0879,0.1956,-0.8461,0.3965,9.84,38.88,34.56,168.4,72.82,171.49,122404,2016-04-11 18:03:01:476
-10.3842,-8.397,0.43,-0.3601,-9.3239,-3.0176,4.3996,-7.7313,-10.2361,-0.2941,-0.3024,-0.676,13.73,39.93,31.9,155.93,72.82,171.49,122504,2016-04-11 18:03:01:576
-3.9984,-11.0087,3.4488,-1.2822,-9.5457,-1.8457,-2.2966,0.0862,6.0698,0.794,1.1909,1.1753,12.19,39.49,31.94,199.82,76.75,145.21,122603,2016-04-11 18:03:01:675
-2.228,-7.5995,-0.7229,-1.904,-9.576,-0.9194,1.9384,-2.6113,0.6739,2.4198,1.6138,1.6266,11.28,41.35,29.06,200.68,76.75,145.21,122703,2016-04-11 18:03:01:775
-1.8508,-9.0713,1.7421,-2.2672,-9.5367,0.2843,-0.3321,0.5694,0.9307,1.356,1.3841,0.1184,15.4,44.43,20.57,245.41,77.6,99.42,122803,2016-04-11 18:03:01:875
-0.6423,-10.8558,-1.326,-2.648,-9.4143,0.7282,1.3085,0.1485,-1.3259,1.2277,1.4366,0.435,15.68,46.38,16.94,276.63,73.74,74.62,122904,2016-04-11 18:03:01:976
4.4523,-9.7491,1.0387,-3.4386,-9.0783,1.3894,4.9865,-1.64,-3.4735,0.8089,0.2132,0.7788,16.33,48.19,10.3,289.95,70.14,69.93,123004,2016-04-11 18:03:02:076
-3.4835,-10.7487,-0.044,-3.2786,-9.1615,1.2197,6.6402,-1.8423,-0.7067,-0.1736,-0.2453,0.1618,18.31,47.18,9.48,289.85,67.78,68,123110,2016-04-11 18:03:02:182
-6.2756,-14.1385,0.6535,-1.6778,-9.5674,-1.3488,-2.0142,-2.2713,1.666,-2.4616,0.2764,-1.5004,18,46.42,13.92,178.27,77.32,128.8,123203,2016-04-11 18:03:02:275
-2.2744,-5.9575,0.4067,0.692,-9.3663,-2.8221,-1.9994,2.4488,2.765,-1.4634,1.1028,-2.0022,12.91,45.55,21.18,213.08,77.32,128.8,123303,2016-04-11 18:03:02:375
-3.1433,-3.127,1.2843,0.7407,-9.1413,-3.4724,-3.9652,4.4962,4.9986,-1.0049,-2.0735,-1.0413,-0.26,42.28,30.58,153.65,68.77,-167.96,123403,2016-04-11 18:03:02:475
5.9432,-17.0682,-10.1361,-0.1353,-9.3477,-2.962,1.3335,-1.8488,-5.096,0.7169,-1.0171,0.3466,5.79,40.36,33.12,153.81,70.13,-175.91,123503,2016-04-11 18:03:02:575
-7.0768,-15.6122,-5.9683,-0.0845,-9.4066,-2.7712,2.9283,-3.9346,-5.1939,0.4121,-0.7321,-0.2286,8.14,40.79,31.28,159.37,72.4,177.38,123603,2016-04-11 18:03:02:675
-4.0981,-11.9277,2.9695,-0.9517,-9.5818,-1.8586,-2.9947,4.1305,7.1899,1.4317,2.0043,1.3683,9.33,42.6,28.79,162.8,74.47,172.91,123703,2016-04-11 18:03:02:775
1.307,-10.4398,0.8662,-1.7607,-9.5776,-1.1577,-1.8703,-1.6687,4.14,1.1268,1.6109,1.4359,8.76,43.52,25.73,192.55,77.71,152.89,123804,2016-04-11 18:03:02:876
-2.9053,-8.9115,-1.5007,-2.4413,-9.4967,0.1523,2.9179,1.4272,-0.1722,1.4736,1.3631,0.115,13.53,48.1,19.01,247.5,75.91,104.74,123903,2016-04-11 18:03:02:975
-1.2077,-10.2973,1.231,-2.6548,-9.4263,0.5173,0.4317,0.487,1.914,0.8746,1.7711,0.3824,12.25,48.34,14.97,285.36,73.99,78.97,124004,2016-04-11 18:03:03:076
0.8051,-9.6049,-0.7704,-3.5635,-9.0676,1.1182,7.522,-1.4212,-1.8848,0.3403,0.0707,0.6407,15.22,49.11,9.62,300.29,67.61,72.58,124104,2016-04-11 18:03:03:176
-0.0946,-11.4312,-2.5682,-3.5297,-9.0981,0.9672,4.3944,-2.6937,-2.5104,-0.4451,-0.1813,-0.1899,15.9,49.57,9.02,299.01,67.61,72.58,124204,2016-04-11 18:03:03:276
-7.8472,-16.2929,1.5379,-1.9672,-9.4982,-1.444,-3.5918,-4.9723,3.2206,-2.1077,0.3065,-1.9083,13.31,47.29,15.83,275.98,72.43,90.48,124303,2016-04-11 18:03:03:375
-0.4781,-9.5994,0.1032,-0.7498,-9.4881,-2.3633,-6.1644,-3.803,3.5032,-1.045,2.0455,-1.6359,8.04,45.53,24.19,178.36,75.36,162.4,124403,2016-04-11 18:03:03:475
-3.2984,-4.1061,2.635,0.5473,-9.0304,-3.7845,-2.7765,3.0322,4.9337,-0.6264,-2.7822,-0.9565,-2.85,40.14,33.27,177.81,71.51,-173.57,124503,2016-04-11 18:03:03:575
1.4264,-12.5798,-9.4309,-0.3639,-9.307,-3.0688,-4.727,6.4823,1.8883,1.1594,-0.9406,0.4213,-2.85,40.14,33.27,177.81,71.51,-173.57,124605,2016-04-11 18:03:03:677
0.8917,-9.6076,-2.6972,-0.3824,-9.3589,-2.9043,5.4523,-7.2644,-8.3181,0.6538,-0.5503,0.6011,2.3,39.8,32.44,186.74,72.62,172.5,124703,2016-04-11 18:03:03:775
-2.673,-7.0625,7.994,-1.0065,-9.5707,-1.8867,-7.319,-2.5932,-2.2642,1.2099,1.4581,0.9779,4.95,41.98,30.04,178.53,75.05,171.43,124803,2016-04-11 18:03:03:875
-2.3687,-11.7209,-0.0231,-1.7453,-9.558,-1.3299,-1.4109,-0.1338,2.6383,1.1477,1.6879,1.3331,3.3,44.76,26.15,214.5,77.41,151.92,124903,2016-04-11 18:03:03:975
-0.9242,-8.8027,4.9292,-2.4602,-9.488,0.3087,2.0319,0.9035,2.7306,1.4722,-0.4022,0.5168,7.98,46.54,21.36,287.14,75.35,82.85,125003,2016-04-11 18:03:04:075
-0.3088,-9.0255,1.8146,-2.6496,-9.42,0.6431,-1.2293,5.0000E-04,-3.0757,1.208,1.6425,-0.0997,10.35,47.78,18.18,283.83,75.35,82.85,125103,2016-04-11 18:03:04:175
2.857,-10.9587,-1.3019,-3.6194,-9.0249,1.2737,4.3027,-2.041,-3.0541,0.8552,0.4451,0.8744,9.8,48.71,11.95,314.04,66.97,70.61,125203,2016-04-11 18:03:04:275
0.1434,-11.535,-3.4308,-3.675,-8.999,1.2969,8.3343,-1.6317,-0.3793,0.0541,0.1585,0.4599,11.55,49.77,9.65,312.28,66.97,70.61,125303,2016-04-11 18:03:04:375
-5.5345,-13.7456,0.7608,-2.1585,-9.5303,-0.8273,0.2246,-1.5116,-1.5935,-2.2166,0.3088,-1.6295,11.8,49.8,11.08,300.49,70.32,79.11,125404,2016-04-11 18:03:04:476
-0.0356,-11.5884,-2.1338,-0.8147,-9.5537,-2.0574,-5.4205,-4.7606,2.532,-2.0048,0.9757,-2.0793,6.97,48.07,19.13,183.14,76.96,158.4,125504,2016-04-11 18:03:04:576
-2.9096,-4.2495,2.0075,0.8632,-9.0198,-3.7509,-0.6432,0.3075,2.6452,-1.3033,-1.3357,-1.3628,-7.74,42.04,29.14,195.49,72.59,-172.96,125604,2016-04-11 18:03:04:676
-3.2793,-2.1564,-0.4053,0.4328,-8.902,-4.0912,-4.1136,6.1074,5.6642,-0.4118,-2.1545,-0.3037,-8.31,37.41,33.14,196.61,65.2,-173.96,125703,2016-04-11 18:03:04:775
-3.5049,-10.5448,-2.3548,-0.0129,-9.3605,-2.9244,5.3992,-7.986,-9.3394,0.7619,-0.5045,-0.1577,-0.45,40.59,32.55,181.71,69.56,179.14,125803,2016-04-11 18:03:04:875
-4.1829,-9.0629,2.0246,0.073,-9.4163,-2.7382,-4.5094,-1.1277,2.1974,0.3294,0.8995,0.023,0.42,41.33,30.53,177.41,73.78,-178.47,125905,2016-04-11 18:03:04:977
-1.9256,-11.0594,1.7983,-1.0796,-9.6677,-1.2408,-1.3972,0.4668,6.0467,1.5065,0.9588,1.3209,-0.3,44.27,26.4,234.98,80.35,138.97,126003,2016-04-11 18:03:05:075
-1.1148,-8.9693,4.1406,-1.9609,-9.5667,0.896,2.817,0.7475,-3.9859,1.1525,0.6771,0.0346,4.97,49.48,18.46,282.44,79.62,89.8,126103,2016-04-11 18:03:05:175
-1.8646,-9.5872,-0.8625,-2.0733,-9.4904,1.3429,0.8346,0.5008,1.2163,1.0474,1.3707,0.1687,4.04,49.69,14.68,319.42,75.41,57.07,126203,2016-04-11 18:03:05:275
3.3393,-10.791,-2.1193,-3.1576,-9.0665,1.9996,2.2821,-0.8148,-1.0152,0.5574,0.6913,0.7273,4.05,50.81,8.96,331.37,71.47,56.32,126304,2016-04-11 18:03:05:376
-0.4935,-12.3488,-2.2816,-3.2856,-9.0163,2.0202,5.9114,-1.9351,-4.2833,0.2378,0.422,-0.1013,8.03,50.68,7.16,328.52,67.6,57.66,126403,2016-04-11 18:03:05:475
-6.4649,-14.9577,2.6901,-2.2108,-9.5512,0.24,0.1848,-2.5539,-1.2354,-2.7156,-0.2918,-1.8687,5.09,50.34,11.19,303.7,76.89,83.8,126503,2016-04-11 18:03:05:575
-3.2742,-12.7863,-2.7561,-1.2032,-9.6578,-1.2037,-7.1121,-5.7253,2.2183,-2.7156,-0.2918,-1.8687,5.09,50.34,11.19,303.7,76.89,83.8,126603,2016-04-11 18:03:05:675
-2.2275,-4.4615,2.4022,0.679,-9.2395,-3.2158,-1.2941,1.8341,3.2486,-1.5987,0.0191,-1.8612,-7.39,46.11,22.54,196.35,70.42,-168.08,126703,2016-04-11 18:03:05:775
-4.902,-1.5691,0.3179,0.502,-9.0471,-3.7508,-3.2847,4.6491,5.5047,-1.3869,-2.1056,-1.1291,-10.38,41.97,28.32,196.29,70.42,-168.08,126803,2016-04-11 18:03:05:875
-1.3403,-8.9984,-4.7382,-0.256,-9.3573,-2.9233,0.7055,-0.1103,-5.1303,1.4596,-0.6266,0.5946,-4.37,37.9,35.63,192.12,70.66,179.08,126903,2016-04-11 18:03:05:975
-7.8892,-16.285,-5.3821,-0.0636,-9.3395,-2.9901,3.074,-5.0569,-6.7395,-0.287,-0.205,-0.2877,-1.72,40.03,33.9,187.7,72.24,178.78,127003,2016-04-11 18:03:06:075
-2.3067,-8.9943,4.5773,-1.0125,-9.5487,-1.9917,-3.8033,-2.4931,1.9364,0.7813,1.4911,1.2234,-1.62,40.14,31.47,195.9,74.02,173.97,127103,2016-04-11 18:03:06:175
-2.6479,-7.7281,-2.0391,-1.9152,-9.5525,-1.1191,-0.7352,1.0271,5.7876,1.5677,0.2172,1.4769,-1.03,43.88,28.91,223.66,76.83,153.05,127203,2016-04-11 18:03:06:275
-1.9877,-9.0028,2.2494,-2.2728,-9.5395,0.0485,-0.4704,1.3417,3.713,1.0933,0.32,-0.041,4.47,47.15,19.24,291.2,76.6,88.78,127303,2016-04-11 18:03:06:375
-0.1799,-11.2289,-1.1809,-3.11,-9.2525,0.943,1.6637,-1.1535,-0.2562,0.7963,0.5972,0.8441,5,50.3,12.12,310.81,74.5,78.14,127403,2016-04-11 18:03:06:475
2.7177,-9.3885,0.2401,-3.4272,-9.0958,1.3005,6.4336,-1.5979,-3.2147,0.7301,-0.0511,0.7725,6.97,51.39,9.49,325.66,68.05,69.22,127503,2016-04-11 18:03:06:575
-3.0017,-11.828,-2.5761,-2.8213,-9.3909,0.146,2.8681,-2.7482,-3.263,-1.7447,-0.1925,-0.7484,8.82,51.03,9.46,304.64,73.26,87.04,127603,2016-04-11 18:03:06:675
-5.7552,-14.8351,0.2807,-1.8451,-9.5163,-1.4855,-1.5544,-2.5658,1.3532,-2.6004,0.2531,-1.5861,7.13,49.51,14.61,252.2,76.02,128.84,127703,2016-04-11 18:03:06:775
-0.9993,-6.1295,0.23,0.3489,-9.2628,-3.2015,-1.5781,-3.1727,3.1628,-1.2961,-0.3026,-1.6408,-3.91,44.19,25.77,221.1,74.76,165.72,127803,2016-04-11 18:03:06:875
-3.4352,-3.173,1.9464,0.4878,-8.9839,-3.9015,-1.5313,2.3062,4.1482,-0.9729,-2.346,-1.0929,-7.58,40.45,29.65,199.15,66.36,-172.87,127903,2016-04-11 18:03:06:975
6.3781,-17.3632,-10.9696,-0.4547,-9.0977,-3.6327,2.2585,-1.8923,-6.1302,0.4133,-1.1858,0.4714,-0.95,39.02,34.32,197.42,68.08,172.87,128003,2016-04-11 18:03:07:075
-5.8464,-19.4222,-6.8064,-0.6681,-9.1107,-3.5663,1.9667,-4.8921,-3.9529,0.013,-1.2705,-0.3057,2.01,38.91,33.01,194.37,68.29,169.39,128104,2016-04-11 18:03:07:176
-3.0191,-16.9446,4.0068,-1.3764,-9.3145,-2.7414,-4.3591,6.9701,10.0502,2.2042,1.9346,1.6368,2.74,38.01,35.09,195.44,68.19,166.89,128203,2016-04-11 18:03:07:275
0.2213,-8.1368,-2.2877,-2.0763,-9.4521,-1.5867,1.5858,-7.1782,3.3054,1.6736,0.8275,1.187,2.16,42.06,30.85,220.83,71.77,153.34,128303,2016-04-11 18:03:07:375
0.2084,-9.1601,0.6672,-2.7021,-9.4264,-0.1081,-0.3767,1.6453,0.6519,1.3332,-0.0763,0.4075,7.16,45.95,19.2,268.82,74.6,109.74,128403,2016-04-11 18:03:07:475
-1.8939,-9.7788,3.7483,-3.2117,-9.2163,0.9571,0.9384,-0.4738,-2.4576,1.3166,0.2788,0.8566,7.18,49.29,13.07,313.93,70.02,73.41,128503,2016-04-11 18:03:07:575
2.6429,-10.0426,-0.057,-3.5996,-9.0249,1.3282,3.3425,-1.6263,-1.9869,0.3382,0.4647,0.5014,9.45,49.99,8.39,317.39,70.02,73.41,128605,2016-04-11 18:03:07:677
2.3496,-10.9094,-2.4579,-3.2731,-9.2188,0.6858,5.3812,-2.4224,-1.5288,0.0012,0.1703,0.0537,11.73,50.8,7.21,319.15,66.32,70.55,128704,2016-04-11 18:03:07:776
-7.2899,-14.8665,2.3061,-2.3484,-9.5027,-0.5953,-2.4183,-3.7386,1.733,-2.106,-0.3603,-1.2609,12.41,47.95,10.56,299.38,70.06,78.17,128803,2016-04-11 18:03:07:875
0.5954,-11.0503,-1.4716,0.2333,-9.4353,-2.6629,-0.0401,-2.1958,0.5437,-1.5056,2.5677,-1.7378,3.05,46.57,22.21,148.54,74.18,-174.99,128903,2016-04-11 18:03:07:975
-3.4508,-2.297,2.2605,0.7678,-9.1537,-3.4338,-2.107,2.719,3.9977,-1.1953,-0.8596,-1.8763,-4.84,43.58,24.31,194.17,74.18,-174.99,129004,2016-04-11 18:03:08:076
-1.408,-7.7438,-8.2328,-0.3057,-9.2625,-3.2066,-4.8446,7.7673,3.9133,0.5244,-1.8918,0.2472,-5.27,38.71,33.91,185.15,67.29,-174.13,129103,2016-04-11 18:03:08:175
-6.1415,-10.9131,3.3343,-0.3665,-9.379,-2.8407,5.9111,-6.8604,-10.0987,1.1661,-0.9988,0.4295,-0.73,38.98,32.04,195.11,73.02,172.65,129203,2016-04-11 18:03:08:275
-2.6124,-6.6517,8.9332,-0.5926,-9.5969,-1.9286,-8.8152,-1.9359,-0.6754,1.029,2.1695,0.7409,1.15,40.82,30.13,201.53,78.13,162.92,129303,2016-04-11 18:03:08:375
2.5132,-8.8622,-1.1029,-1.5674,-9.6118,-1.152,-1.2815,1.9479,8.2095,1.3988,1.7121,1.7306,-0.14,42.93,27.49,205.79,78.13,162.92,129404,2016-04-11 18:03:08:476
-2.9389,-8.5007,5.9442,-2.3086,-9.4991,0.7798,4.3625,0.3119,-2.1913,1.6398,-0.4046,0.2316,4.49,45.75,21.54,303.38,75.61,71.34,129503,2016-04-11 18:03:08:575
-1.1999,-10.7887,1.3088,-2.4399,-9.4168,1.2414,-0.6827,-0.0957,-4.6648,1.1341,1.0705,-0.0173,6.17,47.06,16.27,311.37,73.79,63.03,129603,2016-04-11 18:03:08:675
6.0964,-9.8689,1.5928,-3.504,-8.9275,2.0476,5.8508,-1.9128,-4.1835,0.5566,0.3382,0.9537,7.46,49.31,9.96,327.87,65.55,59.7,129703,2016-04-11 18:03:08:775
-2.9517,-12.726,-3.9868,-3.2847,-9.149,1.295,3.6349,-2.8536,-3.495,-1.2641,0.0555,-0.6164,10.44,49.68,8.54,315.85,68.9,68.48,129803,2016-04-11 18:03:08:875
-7.4545,-14.5618,2.0362,-2.2846,-9.5353,-0.1695,-1.0089,-1.823,-0.3939,-2.3284,0.0679,-1.7556,7.94,49.01,13.25,282.55,76.49,94.24,129903,2016-04-11 18:03:08:975
-0.3736,-11.4941,-2.2254,0.0131,-9.5466,-2.2434,-0.9959,-3.1097,2.8009,-1.3896,0.1023,-1.9384,-3.68,45.2,24.26,248.96,79.23,139.96,130003,2016-04-11 18:03:09:075
-3.0708,-4.9787,1.7727,0.7354,-9.2726,-3.1061,-2.0188,0.5107,2.1584,-1.2976,-2.118,-1.5804,-8.04,42.8,27.81,185.64,71,-166.68,130103,2016-04-11 18:03:09:175
-3.2806,-5.0815,-4.4333,-0.117,-9.3102,-3.0785,-4.2991,6.6378,4.8993,1.2344,-0.8709,0.736,-2.79,36.12,36.24,174.09,68.34,-171.91,130203,2016-04-11 18:03:09:275
3.788,-14.054,-6.9378,-0.2704,-9.4249,-2.6959,-2.4988,3.4817,-1.8297,0.138,-0.3134,-0.4536,1.1,39.31,32.01,180.68,71.69,177.82,130303,2016-04-11 18:03:09:375
-4.0396,-9.5256,3.0163,-0.447,-9.5152,-2.3307,-6.6766,-1.679,0.5126,0.4952,1.291,1.0719,0,41.6,32.33,182.97,74.54,178.18,130403,2016-04-11 18:03:09:475
-2.1032,-9.8512,0.6617,-1.4071,-9.5674,-1.6294,-1.8456,1.1185,6.6599,1.6223,0.8018,2.0726,0.37,41.66,29.8,197.05,76,169.14,130504,2016-04-11 18:03:09:576
-1.939,-8.2289,2.2757,-2.4148,-9.4729,-0.7769,4.1422,0.4027,0.3464,0.8616,1.8015,-0.5643,6.99,45.17,21.46,266.76,75.01,107.83,130603,2016-04-11 18:03:09:675
-2.8764,-9.7999,-1.179,-2.2199,-9.5504,-0.1777,-0.2986,0.62,2.1062,1.5247,0.7811,-0.0071,4.72,46.92,18.7,276.68,75.01,107.83,130703,2016-04-11 18:03:09:775
1.3516,-10.4848,-2.3257,-3.0775,-9.2844,0.7065,1.6862,-0.4536,-0.9928,0.7991,1.18,0.8722,4.27,48.21,13.43,307.56,74.97,82.21,130803,2016-04-11 18:03:09:875
-0.4073,-11.387,-0.6067,-3.3961,-9.1484,0.971,4.4452,-1.5931,-2.7528,0.7996,-0.0519,0.9109,6.49,50.33,11.54,319.98,68.89,74.04,130903,2016-04-11 18:03:09:975
-2.9959,-10.3458,-0.6946,-3.2425,-9.2346,0.616,4.7326,-2.7587,-2.0534,-0.1768,-0.8627,0.195,8.75,49.35,10.27,317.4,67.98,71.35,131003,2016-04-11 18:03:10:075
-5.4875,-13.9153,0.6071,-1.3089,-9.4589,-2.2328,-4.1503,-4.7592,3.123,-2.4541,-0.1371,-1.9096,6.09,48.93,18.1,273.16,75.31,110.84,131103,2016-04-11 18:03:10:175
-1.796,-8.0991,1.3859,-0.1808,-9.2748,-3.1805,2.1099,-2.6425,1.6536,-1.7845,0.7221,-1.4638,0.72,44.09,25.08,182.57,71.04,176.75,131203,2016-04-11 18:03:10:275
-3.4188,-3.1979,2.0986,0.013,-8.8997,-4.1189,-3.4511,4.9825,6.4521,-0.6418,-2.9244,-1.0533,-6,38.02,32.94,191,66.64,-174.88,131303,2016-04-11 18:03:10:375
2.7092,-13.4401,-10.7855,-0.4803,-9.0856,-3.6595,-4.2374,6.3926,2.5446,0.5831,-1.959,-0.0725,-2.33,37.09,37.1,198.93,67.89,172.52,131403,2016-04-11 18:03:10:475
-2.7138,-15.7358,-4.3797,-0.6534,-9.1752,-3.3997,2.3427,-4.8552,-2.0833,-0.0507,-0.535,-0.1359,6.26,38.86,33.11,182.15,69.17,168.57,131503,2016-04-11 18:03:10:575
-3.3416,-10.442,6.8522,-0.9865,-9.2394,-3.1354,-6.0593,-5.5478,-1.9959,0.476,0.5795,0.516,5.63,39.67,33.13,181.12,69.33,169.12,131603,2016-04-11 18:03:10:675
5.9324,-11.5254,-5.7773,-2.8212,-9.3347,-1.0363,0.4561,-5.4416,3.2618,2.092,0.7003,1.6483,4.95,41.87,29.48,267.5,72.15,110.17,131703,2016-04-11 18:03:10:775
-1.5533,-8.7592,3.1417,-2.998,-9.3344,-0.2271,7.3212,-1.2936,-3.9915,1.3054,-0.3752,0.4483,8.1,44.56,25.27,280.27,72.15,94.33,131806,2016-04-11 18:03:10:878
-1.7675,-9.6416,1.6065,-3.3485,-9.1344,1.2329,1.1905,-0.7742,-2.6473,1.1638,0.8315,0.5249,9.35,48.78,15.74,309.82,68.66,69.79,131904,2016-04-11 18:03:10:976
3.2459,-9.9026,-1.9184,-3.8292,-8.9245,1.364,4.284,-1.7103,-3.1046,0.614,0.5482,0.8521,10.88,49.38,12.94,307.77,68.66,69.79,132003,2016-04-11 18:03:11:075
-0.0436,-12.6351,-5.515,-3.5512,-9.1216,0.5963,5.6818,-3.8113,-2.5752,-1.5359,0.0307,-0.7883,13.75,48.24,10.86,308.52,64.53,71.16,132103,2016-04-11 18:03:11:175
-1.9615,-13.1819,3.918,-2.7338,-9.3799,-0.8453,0.1331,-3.6873,-1.7037,-2.6969,-0.9404,-1.4942,12.98,48.17,15.55,294.48,68.46,80.47,132204,2016-04-11 18:03:11:276
-1.0672,-7.8887,0.3078,-0.2755,-9.4029,-2.7713,0.3334,-4.231,2.3346,-1.129,-0.9128,-2.1723,-0.31,42.84,28.79,190.51,73.5,174.32,132303,2016-04-11 18:03:11:375
-4.8687,-0.6396,1.7225,-0.0828,-9.1609,-3.4987,-3.0484,4.5962,5.844,0.1871,-2.4029,-0.0552,-0.95,36.68,36.15,175.54,69.79,-175.81,132404,2016-04-11 18:03:11:476
5.9958,-18.3521,-14.6935,-1.1646,-9.2807,-2.9466,-4.0137,8.0621,4.1647,0.9045,-2.2261,1.5187,3.62,37.11,33.6,170.27,69.09,178.64,132503,2016-04-11 18:03:11:575
-6.3148,-6.9059,4.5084,-2.022,-9.1417,-2.9173,3.1417,-6.4643,-1.4144,0.0095,1.5839,0.8144,15.69,36.86,32.55,194.87,70.08,145.2,132603,2016-04-11 18:03:11:675
-0.1092,-11.8498,0.092,-2.4651,-9.1049,-2.6823,0.0069,-0.7919,6.4686,1.1834,1.0291,1.4471,13.63,37.37,32.04,199.91,68.78,145.27,132703,2016-04-11 18:03:11:775
-1.1003,-7.7947,-0.3107,-3.4681,-9.1714,0.1661,0.9338,0.6659,-1.4085,1.7191,-4.8084,0.8802,15.61,37.25,29.73,242.41,68.76,112.86,132803,2016-04-11 18:03:11:875
-0.3546,-10.1669,-1.7871,-3.4965,-9.1195,0.8827,-0.4658,0.1033,-2.3186,1.6895,0.0676,-0.2274,22.63,39.36,22.36,267.05,68.42,75.83,132905,2016-04-11 18:03:11:977
-2.0601,-10.1996,-1.6167,-4.0644,-8.7479,1.7679,1.3579,-0.7888,-1.1623,0.763,0.4033,0.5693,22.51,42.01,17.37,274.13,66.4,71.73,133003,2016-04-11 18:03:12:075
2.6645,-11.0638,0.623,-4.2939,-8.5235,2.2543,4.0305,-2.7715,-3.6038,0.8946,-0.9314,0.7547,25.47,43.38,14.63,280.32,63.13,66.49,133104,2016-04-11 18:03:12:176
2.8378,-12.4799,-2.5594,-4.1255,-8.7568,1.5713,5.867,-3.9646,-2.9559,-0.8726,-0.32,0.0961,28.02,41.2,11.59,267.04,63.25,69.15,133203,2016-04-11 18:03:12:275
-6.7191,-15.6942,4.3855,-3.3037,-9.226,0.3692,4.5619,-3.211,-2.6371,-2.4028,-1.3139,-1.0564,28.78,39.22,13.87,264.65,63.25,69.15,133303,2016-04-11 18:03:12:375
-0.0373,-10.9417,-1.6332,-1.7402,-9.4404,-2.0055,-1.7042,-3.5171,5.9928,-1.9791,-0.0091,-1.2981,25.14,39.06,22.01,168.11,74.29,139.05,133403,2016-04-11 18:03:12:475
-3.8397,-4.0863,2.0728,-1.1735,-9.3412,-2.745,-0.4472,1.6546,5.0979,-1.7452,-2.6578,-1.8922,22.32,38.24,28.1,156.48,72.28,156.85,133503,2016-04-11 18:03:12:575
-3.4879,-8.8024,-8.0859,-1.3443,-9.336,-2.6836,-3.6901,3.7236,-0.7214,0.1232,-2.2272,-0.4645,24.33,38.85,25.09,143.89,71.43,158.42,133603,2016-04-11 18:03:12:675
1.1625,-6.8185,-2.3377,-0.9825,-9.3422,-2.8157,3.6503,-0.7053,-0.8842,-0.0809,-0.7036,-0.7044,26.84,38.65,20.95,129.85,72.3,160.76,133703,2016-04-11 18:03:12:775
-5.1556,-8.3634,1.048,-1.0897,-9.3713,-2.676,-8.1147,-4.3762,-2.1358,0.2447,0.0428,-0.0185,26.94,39.95,19.34,124.86,72.3,160.76,133806,2016-04-11 18:03:12:878
2.5322,-13.5734,-0.418,-2.6935,-9.3324,-1.3494,-0.5602,-1.0671,1.2942,1.1636,-0.1353,1.4623,28.83,39.65,17.03,186.42,72.11,116.61,133903,2016-04-11 18:03:12:975
0.5097,-6.8718,-4.8101,-2.8435,-9.3795,-0.3324,6.3978,-3.0279,2.385,1.698,-0.0819,0.2817,31,37.98,13.02,173.62,72.11,116.61,134004,2016-04-11 18:03:13:076
-2.1573,-8.9569,0.2418,-2.9133,-9.301,1.0841,-1.79,-0.3196,-0.8114,0.9869,0.802,0.3839,30.8,40,6.65,234.13,71.52,69.59,134103,2016-04-11 18:03:13:175
-0.1676,-11.9443,-1.5844,-3.4429,-9.0411,1.6045,0.2332,-0.2313,-2.9854,1.1732,0.1697,0.8589,30.85,39.28,4.44,226.39,71.52,69.59,134203,2016-04-11 18:03:13:275
0.988,-12.1209,-0.9547,-3.9689,-8.7679,1.8822,5.5707,-2.8243,-2.2493,-0.1911,0.2949,0.2719,34.64,37.1,0.81,236.6,64.04,62.41,134303,2016-04-11 18:03:13:375
-2.5793,-11.2624,-1.7325,-3.5426,-9.0723,1.1463,5.3869,-2.5213,-2.9111,-1.5863,0.0284,-1.0609,35.74,36.6,1.88,217.26,67.69,72.07,134403,2016-04-11 18:03:13:475
-3.2243,-11.821,3.1039,-1.6272,-9.5519,-1.5113,-5.6162,-5.943,2.2466,-1.8442,1.2463,-1.2812,28.91,40.93,8.58,201.49,74.81,93.92,134504,2016-04-11 18:03:13:576
-1.5045,-6.0506,0.7169,-0.5822,-9.4506,-2.5529,-1.9776,-2.1637,2.657,-1.7025,-0.602,-1.9501,22.33,41.91,17.51,120.83,74.51,167.15,134603,2016-04-11 18:03:13:675
-3.976,-1.4868,-0.092,-0.2456,-9.0869,-3.6794,-2.1706,5.3426,5.2252,-0.0261,-2.0841,0,18.33,43.2,22.02,107.75,69.83,-179.84,134703,2016-04-11 18:03:13:775
5.5031,-19.0823,-13.1478,-1.0144,-9.2965,-2.9522,2.3681,-2.1241,-6.5152,-0.0261,-2.0841,0,18.33,43.2,22.02,107.75,69.83,-179.84,134803,2016-04-11 18:03:13:875
-8.9108,-10.7489,-3.1638,-0.7878,-9.3759,-2.7644,3.8608,-4.8918,-4.6894,-0.0806,-1.2703,-0.6978,22.67,44.34,14.51,111.14,71.44,161.04,134903,2016-04-11 18:03:13:975
-2.8314,-10.2583,1.2984,-1.8625,-9.5194,-1.4428,-0.7785,-1.4489,1.6739,1.3149,1.6495,1.205,21.93,45.01,13.91,170.52,76.1,127.76,135003,2016-04-11 18:03:14:075
1.4308,-8.3472,-0.6669,-2.2624,-9.5015,-0.8796,4.7776,-1.0669,2.3016,1.3197,0.8441,1.4538,24.03,42.59,12.57,164.38,76.1,127.76,135103,2016-04-11 18:03:14:175
-3.7786,-9.3811,-2.4886,-2.0635,-9.5742,-0.4973,2.7243,1.5011,0.3751,0.2405,-1.1983,-0.2218,29.34,41.08,9.21,173.7,75.67,111.25,135203,2016-04-11 18:03:14:275
-0.739,-11.3968,0.3713,-2.451,-9.4641,0.7704,0.239,0.2412,-2.4707,1.4556,0.8572,0.3603,26.45,41.78,2.89,198.4,77.75,84.76,135303,2016-04-11 18:03:14:375
2.7383,-10.7221,1.2137,-3.2049,-9.1197,1.6522,5.8795,-2.1298,-2.3422,0.9795,0.3057,0.6434,31.3,38.73,-0.8,217.57,70.69,67.17,135403,2016-04-11 18:03:14:475
0.7215,-12.3292,-5.3945,-3.0778,-9.1709,1.61,3.9493,-3.4699,-2.1473,0.2599,0.3272,-0.073,33.04,37.55,-2.75,220.5,68.43,62.73,135503,2016-04-11 18:03:14:575
-5.4233,-14.6004,-1.5901,-1.5142,-9.6522,-0.8441,-1.469,-1.1833,0.2326,-2.3616,0.0968,-1.5485,31.5,39.92,0.52,204.47,74.96,76.13,135604,2016-04-11 18:03:14:676
0.5034,-9.7633,-4.8291,-0.6459,-9.5697,-2.0431,-5.0313,-4.842,1.6257,-1.9344,0.8003,-1.3531,27.64,42.72,6.45,156.55,79.82,119.14,135703,2016-04-11 18:03:14:775
-2.1023,-3.9222,1.1366,0.445,-9.0044,-3.8591,-2.865,4.8103,5.1015,-1.3003,-1.9556,-1.2978,17.21,44.88,18.14,96.06,71.82,-176.11,135803,2016-04-11 18:03:14:875
0.6886,-8.3038,-8.6964,-0.0228,-8.9923,-3.9125,-3.9986,6.7359,4.844,-0.0354,-1.8831,-0.118,16.6,44.23,19.75,87.09,66.66,-173.42,135903,2016-04-11 18:03:14:975
0.4604,-9.1073,-3.8165,-0.4923,-9.1905,-3.3857,4.5919,-5.8103,-6.0221,0.2531,-0.9383,-0.3142,21.11,43.05,14.75,92.63,68.58,171.96,136003,2016-04-11 18:03:15:075
-3.4862,-7.0774,4.8635,-0.8677,-9.2598,-3.1103,-8.9678,0.063,2.5661,0.521,0.567,0.7702,21.18,44.44,12.85,99.04,70.78,164.41,136103,2016-04-11 18:03:15:175
0.1331,-11.3803,-0.7855,-2.6352,-9.256,-1.8847,-0.2851,0.3777,3.3671,0.6962,0.0485,1.338,26.12,42.34,10.3,121.76,72.07,143.85,136203,2016-04-11 18:03:15:275
-1.4715,-10.1791,-2.4319,-2.8647,-9.3543,-0.6794,5.1578,-1.2714,3.0193,1.8208,1.6965,-0.3762,29.12,42.03,3.72,169.55,72.53,103.34,136303,2016-04-11 18:03:15:375
-2.9799,-8.9928,0.9138,-2.8849,-9.3324,0.8679,0.5252,-0.923,-3.2286,0.9394,1.2565,0.4935,27.64,42.69,2.5,212.55,73.74,78.07,136403,2016-04-11 18:03:15:475
4.0122,-10.3175,-0.5173,-3.9201,-8.8298,1.6845,4.4339,-2.224,-2.7488,0.3608,-0.1307,0.6995,32.11,37.45,-0.73,216.6,67.66,69.32,136503,2016-04-11 18:03:15:575
1.2725,-11.7899,-1.164,-3.8263,-8.8722,1.6777,7.028,-2.6775,-2.1163,-0.3015,-0.3688,-0.3178,35.01,38.68,-0.31,228.61,64.78,66.32,136603,2016-04-11 18:03:15:675
-5.7374,-14.1878,0.1882,-2.5319,-9.4542,-0.6155,-2.8539,-4.0865,1.7262,-2.2333,-0.0516,-1.3401,29.82,41.75,5.08,172.97,74.59,103.66,136704,2016-04-11 18:03:15:776
-1.7055,-9.7748,-0.718,-1.6981,-9.4684,-1.9071,-3.8341,-3.4181,2.6929,-1.6886,2.4678,-1.0385,25.8,43.33,10.75,137.97,74.91,138.32,136803,2016-04-11 18:03:15:875
-2.6626,-3.6041,1.6518,-0.1351,-9.0652,-3.7382,-1.9003,2.909,3.6083,-1.6084,-0.5325,-1.8562,22.59,42.71,18.9,115.78,72.21,168.3,136903,2016-04-11 18:03:15:975
-2.0448,-2.884,-3.6653,-0.4934,-8.9962,-3.8723,-2.4105,5.8627,5.2417,-1.075,-2.0859,-0.7777,18.55,44.98,22.16,101.78,67.58,177.93,137003,2016-04-11 18:03:16:075
-0.9404,-11.3053,-6.6848,-1.1783,-9.1846,-3.2288,5.8707,-7.3622,-7.9766,0.7037,-1.0961,0.3821,20.89,42.33,20.13,126.77,69.48,159.95,137103,2016-04-11 18:03:16:175
-4.4988,-3.9556,4.0787,-1.1372,-9.2108,-3.1684,-1.8773,-2.4488,-2.5288,-0.0137,-1.1064,-0.4767,23.26,42.53,17.02,114.74,69.48,159.95,137203,2016-04-11 18:03:16:275
-0.248,-12.2819,-2.0685,-2.3741,-9.2704,-2.1431,-2.5989,2.8568,5.9667,1.4305,1.7617,1.5951,23.69,43.62,16.71,132.21,71.74,150.71,137303,2016-04-11 18:03:16:375
-1.6001,-8.5943,-3.1182,-2.8242,-9.2761,-1.4655,8.0925,0.6479,2.759,0.6687,-0.0946,1.2835,27.19,40.91,14.88,183.16,71.07,117.43,137404,2016-04-11 18:03:16:476
-2.9898,-9.3338,-3.4376,-2.7886,-9.4004,-0.1616,0.5678,-0.3819,0.2239,1.1672,1.058,-0.0899,30.15,41.82,8.72,202.8,73.45,93.32,137503,2016-04-11 18:03:16:575
1.6318,-11.489,-2.7686,-3.6036,-9.093,0.7092,3.1224,-2.4191,-1.1607,0.7187,0.3004,0.8622,29.49,41.19,4.84,212.41,71.21,82.91,137604,2016-04-11 18:03:16:676
1.8346,-12.5236,-1.3046,-3.7385,-9.0276,0.8348,7.4886,-1.3596,-1.8332,0.4091,0.2439,0.4875,31.34,39.55,3.98,218.4,68.01,78.87,137703,2016-04-11 18:03:16:775
-4.5865,-13.0087,2.086,-2.6092,-9.4461,-0.365,2.1919,-2.0815,-2.6882,-1.7145,-0.7954,-1.1926,33.31,39.95,3.96,212.09,69.57,79.6,137803,2016-04-11 18:03:16:875
-4.2693,-12.6306,0.9465,-1.7634,-9.4991,-1.6816,-3.039,-3.8085,3.2415,-2.2282,-0.0616,-1.4384,30.59,40.72,7.12,134.82,75.61,133.64,137903,2016-04-11 18:03:16:975
-2.2766,-5.2145,0.2878,0.1974,-9.2914,-3.1307,-0.7535,-0.987,2.658,-1.0814,-0.4321,-1.5772,21.19,43.26,18.18,125.15,74.39,163.9,138003,2016-04-11 18:03:17:075
-4.0871,-1.8875,0.4558,0.2565,-9.1102,-3.6205,-2.295,3.0002,4.0285,-0.6687,-1.9225,-0.7905,19.27,43.79,21.08,95.39,68.28,-175.95,138103,2016-04-11 18:03:17:175
5.0822,-15.6657,-10.4227,-0.492,-9.3081,-3.0476,4.4586,-6.0579,-6.9388,0.3432,-0.916,0.1571,20.85,43.47,18.38,110.02,71.65,170.83,138203,2016-04-11 18:03:17:275
-7.1015,-13.5762,-2.9927,-0.3618,-9.384,-2.8248,1.2133,-0.4708,1.1816,0.4983,0.0388,-0.3105,22.17,43.98,16.05,103.13,71.65,170.83,138303,2016-04-11 18:03:17:375
-3.4715,-10.0831,1.6391,-1.478,-9.5105,-1.8803,-1.5987,3.3115,6.0501,1.2934,1.0053,1.7434,22.78,43.84,14.59,148.69,75.88,141.83,138403,2016-04-11 18:03:17:475
0.6226,-7.8245,-2.582,-2.3696,-9.4194,-1.3527,0.5571,-2.1556,0.9529,0.1596,-1.5027,1.0598,27.11,41.22,12.42,170.01,73.85,119.72,138503,2016-04-11 18:03:17:575
-4.7828,-9.6309,-4.2928,-2.3033,-9.5305,-0.1869,0.6743,0.7613,1.2171,1.9434,1.435,-0.1587,30.75,41.29,5.45,159.9,74.37,111.6,138603,2016-04-11 18:03:17:675
0.256,-11.3216,-1.1132,-2.5977,-9.4494,0.3631,-1.8393,0.0484,-3.5211,0.7045,1.0024,0.7607,29.17,41.47,1.42,196.8,74.49,82.04,138703,2016-04-11 18:03:17:775
4.1261,-9.7481,0.3778,-3.3662,-9.1751,0.81,5.2513,-1.9191,-2.5525,0.3387,0.2713,-0.0377,33.38,37.14,-1.52,198.37,69.33,76.47,138803,2016-04-11 18:03:17:875
-2.3296,-10.936,-0.2263,-2.2106,-9.5266,-0.727,-0.4382,-2.8278,-0.3189,-1.3308,-0.1944,-0.8581,35.29,36.54,1.43,197.03,72.15,80.85,138903,2016-04-11 18:03:17:975
-6.7871,-14.3602,-0.2392,-1.3089,-9.4743,-2.1666,-4.9134,-5.3281,3.2157,-2.7117,-0.4804,-1.6595,30.79,38.99,5.25,166.69,76.27,108.21,139003,2016-04-11 18:03:18:075
-2.3472,-5.2548,0.6219,0.8107,-9.0656,-3.6508,-2.4216,1.7185,3.0393,-0.8759,0.4415,-2.0665,23.23,41.69,16.1,76.58,67.58,-167.48,139104,2016-04-11 18:03:18:176
-3.8933,-2.5421,1.2675,0.7381,-8.8438,-4.1729,-3.2652,4.5788,5.887,-1.1706,-2.0013,-1.3479,18.66,42.18,19.11,83.26,67.58,-167.48,139203,2016-04-11 18:03:18:275
1.6451,-13.0207,-10.8748,0.1113,-9.0587,-3.7548,-4.8683,6.8719,4.437,0.1318,-2.1082,-0.1939,18.43,42.49,21.45,83.79,64.4,-169.97,139303,2016-04-11 18:03:18:375
-12.3645,-7.6723,2.2682,-0.0444,-9.2351,-3.2988,3.6436,-4.5568,-3.5202,-0.0411,-0.5454,-0.2452,22.89,43.61,12.76,85.79,69.64,175.94,139403,2016-04-11 18:03:18:475
-2.8325,-7.7629,2.3554,-0.8049,-9.4654,-2.4348,-2.2266,-3.4056,1.5745,0.6734,1.4081,1.1624,21.84,43.89,10.73,87.27,72.59,175.35,139503,2016-04-11 18:03:18:575
1.5924,-9.7668,3.1757,-1.5752,-9.4778,-1.9649,-1.4568,1.8488,5.044,0.9128,0.6821,1.3322,25.07,43.77,10.33,130.59,75.12,141.28,139604,2016-04-11 18:03:18:676
-3.5031,-9.3226,-2.9369,-1.7219,-9.6508,-0.2584,-0.0551,0.2822,0.8561,1.9404,1.3345,-0.1097,28.93,40.73,3.75,138.72,76.84,126.1,139703,2016-04-11 18:03:18:775
-0.4204,-10.9272,0.0802,-2.0085,-9.5933,0.3238,-0.8768,-0.4375,-2.532,1.3543,1.2343,0.3024,29.75,41.55,1.49,195.99,78.03,80.84,139803,2016-04-11 18:03:18:875
2.0553,-11.2452,-0.4721,-2.8356,-9.3461,0.8831,5.9574,-0.7231,-1.7538,0.5274,0.1321,0.6092,33.23,38.96,1.15,203.43,74.42,76.37,139903,2016-04-11 18:03:18:975
0.7977,-12.4202,-2.6456,-2.7061,-9.3999,0.7,4.2858,-2.3063,-2.0684,-0.2919,-0.119,-0.0849,35.17,37.37,-0.06,201.78,73.44,75.5,140004,2016-04-11 18:03:19:076
-5.6782,-12.664,-0.3822,-1.1469,-9.546,-1.9312,-3.3811,-3.518,3.7252,-2.3826,0.2409,-1.5838,31.94,40.24,5.21,113.65,76.76,149.29,140104,2016-04-11 18:03:19:176
-0.3875,-9.1268,-1.5481,-0.1025,-9.3728,-2.8828,-6.1107,-4.2959,2.6768,-1.5412,0.9781,-1.5447,28.5,43.04,11.39,125.49,76.76,149.29,140204,2016-04-11 18:03:19:276
-4.3944,-1.8908,1.6719,0.7583,-8.6911,-4.4789,-2.1704,1.7951,5.0406,-0.9885,-2.2835,-0.9557,18.97,42.55,20.31,76.61,62.41,-170.39,140303,2016-04-11 18:03:19:375
2.2823,-14.4888,-10.2402,-0.3879,-9.002,-3.8708,-3.6741,5.9792,2.6678,0.5437,-1.0229,0.3611,22.52,43.09,17.29,78.73,63.76,-177.35,140403,2016-04-11 18:03:19:475
-6.6034,-15.9475,-1.2708,-0.4959,-9.0563,-3.7293,0.744,-2.7358,-1.6808,0.1719,-0.9787,-0.452,24.31,43.18,13.53,84.73,66.63,174.28,140503,2016-04-11 18:03:19:575
-5.6083,-6.2257,4.9572,-0.9717,-9.3334,-2.8484,-4.9878,5.2197,6.9373,1.7775,1.9418,1.6848,24.16,44.59,13.5,105.9,72.13,161.16,140604,2016-04-11 18:03:19:676
3.2836,-8.5315,-1.6284,-1.7928,-9.4471,-1.9259,-0.7688,-5.0545,2.2632,1.1133,-0.823,1.0874,26.32,43.03,11.31,102.59,72.13,161.16,140705,2016-04-11 18:03:19:777
-1.3051,-8.5688,4.1045,-1.979,-9.5777,-0.722,2.2151,0.9351,0.0254,1.089,0.9607,-0.2449,29.85,40.6,5.34,164.68,77.6,110.04,140804,2016-04-11 18:03:19:876
-1.0655,-10.9444,0.9824,-2.0463,-9.5906,0.0546,-1.0838,0.1853,2.0033,1.5323,0.1521,0.4125,29.85,41.28,2.88,190.4,77.95,88.47,140903,2016-04-11 18:03:19:975
3.5675,-10.3756,-2.0256,-3.0383,-9.2745,0.9605,2.9209,-1.6262,-0.6435,0.7714,0.494,1.0393,29.86,38.92,2.14,208.96,74.59,75.42,141003,2016-04-11 18:03:20:075
0.9291,-12.4948,-2.6433,-3.1471,-9.2266,1.066,6.8146,-0.8856,-1.9659,0.428,7.0000E-04,0.7468,32.68,38.88,0.78,215.97,70.19,71.29,141103,2016-04-11 18:03:20:175
-6.7742,-14.2596,2.6361,-1.7531,-9.6105,-0.8581,2.5078,-2.8421,-2.3576,-1.8718,-0.3764,-1.2615,34.52,37.19,0.39,146.72,78.52,116.08,141203,2016-04-11 18:03:20:275
-0.4054,-9.0867,-0.8437,-0.8437,-9.5055,-2.2593,-5.6288,-4.4192,2.3984,-2.5228,-0.1143,-1.5989,29.88,40.21,6.33,102.54,75.76,159.52,141303,2016-04-11 18:03:20:375
-2.8399,-4.7972,1.8964,0.7925,-8.8363,-4.1788,-2.6289,2.4793,4.6898,-1.5829,-0.7069,-1.7569,22.02,42.5,17.46,74.53,64.3,-169.26,141403,2016-04-11 18:03:20:475
-1.1155,-5.5482,-6.5208,0.4162,-8.7342,-4.4397,-3.6896,4.7796,6.0436,-0.7338,-2.105,-0.7915,18.04,41.97,21.42,83.01,64.3,-169.26,141504,2016-04-11 18:03:20:576
-0.7008,-7.4575,-2.8562,-0.6669,-9.0044,-3.8269,4.3078,-6.6447,-6.5418,0.6789,-1.2134,0.4796,21.63,42.89,18.55,92.96,65.5,175.26,141603,2016-04-11 18:03:20:675
-5.5701,-10.8429,-0.3447,-0.8575,-9.2453,-3.1559,-7.9768,-2.7418,2.1529,0.8583,1.0765,0.4534,24.48,43.06,14.84,105.24,70.52,164.8,141703,2016-04-11 18:03:20:775
-0.5049,-11.4199,-0.0648,-1.4698,-9.4087,-2.3423,-3.0768,0.6556,6.1657,1.3692,1.3755,1.2313,26.51,42.44,15.29,133.46,73.62,147.89,141803,2016-04-11 18:03:20:875
0.0016,-7.9166,-0.4026,-1.9421,-9.5918,-0.6298,5.1356,0.2085,1.246,1.2108,0.1006,0.009,31.49,40.48,9.64,156.95,75.45,123.3,141903,2016-04-11 18:03:20:975
-2.5184,-9.7365,-1.9662,-1.7847,-9.6429,0.0256,0.1721,0.7871,0.4566,1.2504,1.3315,-0.2711,32.37,40.16,6.57,172.23,77.98,107.97,142003,2016-04-11 18:03:21:075
0.6434,-10.4537,-0.9566,-2.6474,-9.398,0.9161,3.1752,-1.1271,-1.7138,0.6788,0.3987,0.8843,31.06,40.06,3.67,222.12,73.4,70.91,142103,2016-04-11 18:03:21:175
0.7546,-12.2983,-1.2774,-2.8751,-9.3005,1.1854,5.8232,-0.9158,-1.5189,0.4428,-0.0146,0.4844,32.91,37.52,3.34,216.99,73.4,70.91,142203,2016-04-11 18:03:21:275
-1.7143,-11.8407,-3.5501,-2.3947,-9.5094,0.0787,2.3733,-2.269,-3.5153,-1.8988,0.0136,-0.7837,35.73,37.83,2.72,189.31,75.86,88.12,142303,2016-04-11 18:03:21:375
-4.7663,-12.9377,1.2885,-1.5308,-9.5799,-1.4324,-1.6711,-1.6934,1.5245,-2.3401,0.0356,-1.4804,32.43,39.51,7.99,203.32,75.86,88.12,142403,2016-04-11 18:03:21:475
-0.689,-8.5341,-0.2974,0.5225,-9.2785,-3.1317,-1.5878,-2.7224,2.1283,-1.2142,-0.3271,-1.7216,22.54,42.37,18.29,120.5,75.17,167.71,142503,2016-04-11 18:03:21:575
-4.5287,-2.0159,0.7603,0.8475,-9.0169,-3.7613,-2.4885,1.6252,3.8815,-0.7233,-2.3418,-1.1188,18.85,42.44,21.56,100.08,71.11,-170.53,142603,2016-04-11 18:03:21:675
2.8167,-14.8905,-9.4618,-0.1412,-9.196,-3.4034,-4.6258,6.6713,2.9029,0.6447,-0.6745,0.6688,20,43.06,20.49,103.45,69.67,177.62,142704,2016-04-11 18:03:21:776
0.0789,-11.4178,-1.1676,-0.2797,-9.2739,-3.1761,2.0254,-3.7476,-5.7065,0.3464,-0.7178,-0.4105,21.75,43.01,16.7,94.96,69.67,177.62,142804,2016-04-11 18:03:21:876
-3.4222,-6.9256,6.2435,-0.8131,-9.5002,-2.2925,-4.3679,3.3337,6.1227,1.3657,1.2859,1.5186,22.23,44,13.73,119.26,75.64,160.47,142903,2016-04-11 18:03:21:975
2.1089,-7.9785,-0.4361,-2.1611,-9.5319,-0.8014,4.0463,-1.8295,2.2175,0.4312,0.0225,1.44,25.32,42.37,10.9,111.22,75.64,160.47,143003,2016-04-11 18:03:22:075
-4.285,-9.5273,2.6317,-2.0574,-9.5837,0.2997,1.5218,1.5339,0.2742,2.2892,-1.1073,0.2587,28.83,40.63,10.78,220.24,77.76,81.71,143103,2016-04-11 18:03:22:175
-0.1294,-11.1405,0.5997,-2.6491,-9.3499,1.3161,0.0581,-0.5489,-2.0237,1.0068,0.7004,0.518,28.39,42.41,2.98,222.83,76.36,68.11,143203,2016-04-11 18:03:22:275
3.4737,-9.7937,0.3847,-3.1145,-9.1701,1.5426,3.6515,-2.1983,-1.7239,0.8559,0.4153,0.9662,29.91,41.08,2.75,239.67,69.24,63.65,143303,2016-04-11 18:03:22:375
0.7163,-11.4331,-2.6868,-3.0072,-9.2753,1.0472,2.9463,-2.5871,-1.9429,-0.1325,0.3295,-0.0733,34.13,38.29,0.76,214.39,71.05,70.8,143403,2016-04-11 18:03:22:475
-6.4516,-14.3309,1.7075,-2.2449,-9.5428,-0.2561,2.8943,-1.8572,-2.5695,-1.824,-0.3819,-0.8999,34.43,38.51,2.21,217.42,71.05,70.8,143503,2016-04-11 18:03:22:575
0.4033,-9.9339,-3.2672,-0.2351,-9.5083,-2.3888,-0.1668,-1.3472,2.956,-1.5094,1.1597,-1.3514,26.33,41.6,13.43,144.34,77.32,140.81,143603,2016-04-11 18:03:22:675
-2.618,-4.69,1.1618,0.7007,-9.308,-3.0068,-2.1211,1.5065,1.9312,-0.8449,-0.0206,-1.8503,20.92,42.19,19.11,89.58,71.65,-166.88,143703,2016-04-11 18:03:22:775
-3.8348,-3.347,-1.6056,0.325,-9.2168,-3.3341,-4.2846,5.6372,2.6432,0.2969,-1.6647,-0.0745,17.47,42.76,21.48,89.76,68.22,-168.21,143803,2016-04-11 18:03:22:875
2.2995,-13.1635,-7.0137,-0.0545,-9.3664,-2.9049,0.6036,-2.4455,-4.3553,0.8595,-0.8536,0.4044,18.9,42.12,19.19,94.66,70.03,-174.43,143904,2016-04-11 18:03:22:976
-4.4998,-5.5909,4.7064,-0.1886,-9.4692,-2.5434,-3.2351,-2.3992,2.5791,0.2963,0.0937,0.103,20.67,44.13,14.71,96.4,73.49,178.75,144003,2016-04-11 18:03:23:075
-0.7786,-12.3376,-1.2286,-1.0439,-9.5654,-1.8931,-7.3214,2.8846,1.4399,1.1377,1.1441,1.4005,21.45,43.53,13.84,136.25,77.26,151.13,144104,2016-04-11 18:03:23:176
2.103,-8.0486,-1.5318,-2.2849,-9.5286,-0.3934,3.3545,-1.9442,0.4309,1.2959,-0.358,0.4377,28.46,39.67,10.93,197.62,76.32,99.77,144203,2016-04-11 18:03:23:275
-3.8634,-9.4779,-4.2985,-2.324,-9.4535,1.1834,-0.9154,-0.0781,0.376,0.9863,1.0859,0.261,28.95,41.33,2.17,211.22,76.9,72.99,144304,2016-04-11 18:03:23:376
1.7195,-11.6455,-2.7067,-2.8249,-9.2601,1.5623,1.8369,-1.2602,-0.5639,0.8886,0.3998,0.8434,29.71,40.65,2.23,227.73,74.58,63.01,144403,2016-04-11 18:03:23:475
-0.1204,-13.5089,-1.1493,-3.3852,-9.0284,1.7888,4.9916,-2.8729,-1.9192,-0.0376,0.1374,0.2188,34.77,38.01,-2.33,226.68,67.67,60.45,144503,2016-04-11 18:03:23:575
-1.253,-11.2435,-2.7108,-2.9593,-9.2966,0.9928,3.6367,-2.2206,-4.4405,-1.6931,0.0927,-0.9491,34.51,36.82,-1.57,224.38,67.02,62.15,144603,2016-04-11 18:03:23:675
-4.6409,-12.4731,0.5752,-1.0488,-9.5629,-1.9027,-6.1396,-5.3063,2.2214,-2.0991,1.4299,-1.2378,26.12,41.43,9.6,123.1,77.2,151.14,144703,2016-04-11 18:03:23:775
-2.3237,-5.899,-0.257,0.026,-9.3629,-2.9164,-2.389,-2.1411,3.6011,-1.6008,0.1333,-1.8873,23.12,42.71,16.7,97.98,72.7,-179.49,144804,2016-04-11 18:03:23:876
-3.1827,-1.3246,1.333,0.2199,-8.9285,-4.0503,-2.7862,4.9221,5.3443,0.269,-1.8468,0.2462,16.74,42.45,21,92.78,65.57,-176.89,144903,2016-04-11 18:03:23:975
1.3138,-13.6318,-10.1534,-0.4486,-9.1407,-3.5238,-3.3276,7.6079,3.7993,1.2304,-0.6615,0.7415,20.41,42.01,20.22,89.52,65.57,-176.89,145003,2016-04-11 18:03:24:075
-13.395,-10.3761,-2.3142,-0.7082,-9.1985,-3.3251,1.6853,-4.7169,-2.235,-0.4617,-1.4258,-0.703,23.46,42.82,13.78,90.21,68.76,172.74,145103,2016-04-11 18:03:24:175
-1.1321,-10.6761,-1.3514,-1.3052,-9.3513,-2.6495,-2.3444,1.01,6.4942,0.5905,1.3769,1.1377,21.64,43.68,15.17,124.03,72.47,153.77,145203,2016-04-11 18:03:24:275
-0.4553,-8.5456,2.7621,-2.3815,-9.4089,-1.4041,4.0865,-0.129,4.6728,0.4066,-0.3168,1.0583,24.26,41.09,11.4,168.75,73.63,120.52,145303,2016-04-11 18:03:24:375
-1.8097,-9.6113,1.1663,-2.416,-9.4793,-0.6907,0.1939,0.3659,0.177,1.4073,-0.0406,0.1259,28.53,40.72,11.62,166.48,73.63,120.52,145404,2016-04-11 18:03:24:476
-0.775,-10.692,0.3215,-3.0491,-9.3195,0.1403,1.7143,-0.6659,-0.6057,0.8674,0.5728,0.6502,28.6,42.21,4.88,203.96,71.87,87.36,145503,2016-04-11 18:03:24:575
1.3463,-11.5912,-0.0974,-3.5788,-9.1137,0.5508,6.7504,-1.2631,-1.422,0.3688,0.056,0.5399,32.67,38.86,2.81,207.27,68.33,81.25,145603,2016-04-11 18:03:24:675
-2.2903,-12.3965,-4.0466,-3.1858,-9.2744,0.0778,4.1276,-2.6931,-1.1327,-0.2917,0.1909,-0.3367,32.79,37.04,2.22,203.14,68.33,81.25,145703,2016-04-11 18:03:24:775
-5.611,-13.8663,1.7066,-1.6037,-9.3574,-2.4571,-2.9162,-3.3158,3.7624,-2.2204,0.1782,-1.3618,30.17,39.62,5.97,155.35,73.89,116.34,145804,2016-04-11 18:03:24:876
-0.8148,-8.9057,-0.9563,-0.5652,-9.2473,-3.2152,-3.5655,-3.7276,4.048,-1.4118,0.7511,-1.4526,25.85,41.3,13.62,131.47,72.59,146.87,145904,2016-04-11 18:03:24:976
-2.7156,-3.9831,1.5338,0.1235,-8.8603,-4.2011,-3.1058,5.0824,5.4756,-0.6576,-2.1549,-1.0701,17.04,41.92,20.12,88.73,64.62,-178.32,146004,2016-04-11 18:03:25:076
1.0887,-12.1659,-8.6542,-0.3992,-8.9895,-3.8987,-3.5561,5.2065,1.8567,0.4762,-1.6308,0.0557,16.43,42.82,19.9,87.27,64.62,-178.32,146104,2016-04-11 18:03:25:176
2.7144,-10.325,-3.3053,-0.702,-9.1105,-3.5605,4.2795,-2.6258,-1.3058,0.2114,-0.5312,-0.1884,21.31,42.45,14.44,91.37,67.42,168.45,146203,2016-04-11 18:03:25:275
-3.0877,-7.9863,4.1779,-0.8864,-9.2104,-3.2487,-7.222,-1.252,2.5578,0.4675,0.5944,0.3647,21.94,43.44,12.45,94.89,69.92,164.74,146303,2016-04-11 18:03:25:375
-0.7198,-9.8732,0.1136,-2.1667,-9.2291,-2.51,0.329,0.875,4.3238,0.5647,0.1398,1.2016,25.97,42.75,10.96,108.05,70.61,153.42,146403,2016-04-11 18:03:25:475
-0.9405,-8.3731,1.6911,-2.3695,-9.4413,-1.1906,3.4903,-1.8484,2.856,2.2556,-1.4844,0.0453,29.44,41.02,9.44,164.33,74.31,116.68,146505,2016-04-11 18:03:25:577
-0.6916,-9.8445,0.7863,-2.5071,-9.4611,0.6106,-0.9386,0.2948,-0.7702,1.0202,1.2024,0.4942,28.59,40.7,1.52,208.92,74.74,76.31,146603,2016-04-11 18:03:25:675
2.5451,-10.8927,-2.257,-3.0756,-9.2529,1.0464,0.1031,-0.6018,-2.3268,0.9642,0.4133,0.9452,29.59,39.77,-0.03,215.5,70.65,71.21,146703,2016-04-11 18:03:25:775
1.2018,-12.9087,-1.9262,-3.5463,-9.0783,1.0859,5.6284,-3.0846,-1.5471,-0.2236,-0.1657,0.1464,33.79,37.15,-2.08,205.79,67.78,72.98,146803,2016-04-11 18:03:25:875
-5.9969,-13.569,2.3271,-2.2948,-9.4464,-1.2918,-2.062,-3.1019,2.6779,-2.4117,-0.6944,-1.6328,32.56,39.28,0.76,139.13,74.42,119.38,146903,2016-04-11 18:03:25:975
-3.8816,-12.7451,0.3108,-1.4175,-9.3524,-2.5871,-5.2153,-5.6078,3.0627,-1.8696,2.1331,-1.012,27.2,42.11,6.07,102.88,72.49,151.28,147003,2016-04-11 18:03:26:075
-2.5089,-3.6603,1.4648,-0.3381,-8.5991,-4.7023,-1.6928,2.7116,5.2227,-1.302,-2.5633,-0.8526,19.28,42.67,19.13,80.77,61.27,175.89,147103,2016-04-11 18:03:26:175
-4.1871,-0.3372,0.4111,-0.916,-8.4619,-4.8712,-1.6907,5.5034,6.3984,-1.302,-2.5633,-0.8526,19.28,42.67,19.13,80.77,61.27,175.89,147204,2016-04-11 18:03:26:276
-0.1104,-9.4474,-4.9063,-1.5207,-8.7468,-4.1656,3.7004,-7.4118,-8.0441,0.8308,-0.6108,0.2742,23.07,42.68,15.67,93.54,63.12,159.95,147303,2016-04-11 18:03:26:375
-8.9413,-13.5455,-3.5369,-1.5266,-8.8709,-3.8918,0.3607,-1.8408,-0.2306,0.2113,-0.9736,-0.5588,24.16,42.85,12.68,86.17,63.12,159.95,147403,2016-04-11 18:03:26:475
-0.9955,-11.9199,-0.7991,-2.2265,-9.1695,-2.6707,0.4889,-1.8205,2.1139,1.7223,2.3137,1.2275,24.42,41.73,12.46,126.98,69.23,140.18,147503,2016-04-11 18:03:26:575
-1.6986,-7.8055,3.4084,-2.4883,-9.3015,-1.8602,4.0789,-0.1111,4.7502,1.0801,0.0239,0.8214,26.27,42.7,10.71,122.46,69.23,140.18,147603,2016-04-11 18:03:26:675
-2.1901,-9.5834,-0.7349,-2.4573,-9.4716,-0.649,-0.0208,-0.5759,-1.6358,1.3389,1.85,0.0485,28.78,40.83,3.54,151.69,74.45,114.94,147703,2016-04-11 18:03:26:775
1.9917,-11.1356,-2.5625,-2.8975,-9.3671,-0.1794,1.6694,-0.7951,0.2018,1.0103,0.9958,0.6671,29.17,41.43,0.6,158.92,74.98,104.79,147803,2016-04-11 18:03:26:875
1.1959,-13.5585,-2.1187,-3.3556,-9.2146,-0.0377,6.1542,-1.3695,-0.0994,-0.2149,-0.2649,0.3608,33.78,37.04,-1.36,175.9,69.99,90.64,147903,2016-04-11 18:03:26:975
-1.8571,-11.4958,1.4007,-2.7857,-9.3463,-1.0278,4.709,-3.0558,-1.4525,-1.3441,-0.009,-0.6333,32.31,36.93,-0.63,175.53,69.99,90.64,148003,2016-04-11 18:03:27:075
-4.2882,-11.3198,2.3428,-0.8046,-9.2579,-3.1328,-5.5855,-5.505,4.0219,-1.3728,1.2466,-1.4253,27.85,40.26,7.18,89.51,70.74,165.6,148103,2016-04-11 18:03:27:175
-2.1203,-6.1171,1.1724,0.3239,-8.7967,-4.3224,-1.4788,0.8527,4.5388,-1.0981,-2.1819,-1.2182,19.67,44.11,17.42,84.97,68.16,-176.19,148204,2016-04-11 18:03:27:276
-5.4205,-2.6098,-1.0037,-0.2477,-8.7907,-4.3397,-4.5894,6.5902,5.1996,3.0000E-04,-2.0686,-0.1441,18.09,45.41,17.94,75.48,63.77,-175.71,148303,2016-04-11 18:03:27:375
0.8452,-10.6688,-3.9969,-0.7221,-8.8921,-4.0719,4.7001,-4.7635,-2.5991,0.1318,-0.7422,-0.2399,22.29,44.48,11.59,77.44,65.06,169.94,148403,2016-04-11 18:03:27:475
-7.9135,-10.7574,-2.3541,-0.9102,-8.9866,-3.8188,-5.0727,-4.2743,2.0934,0.335,-0.0137,0.2955,21.17,45.43,10.77,72.73,65.06,169.94,148504,2016-04-11 18:03:27:576
-3.8824,-10.5371,1.2824,-1.4164,-9.2644,-2.8871,-2.076,0.2122,4.664,0.9493,2.1458,1.181,23.49,44.23,10.84,105.8,70.86,153.87,148603,2016-04-11 18:03:27:675
-1.031,-7.7287,1.0398,-1.9688,-9.3973,-1.9963,2.4221,-2.787,2.6942,1.5844,-1.4356,0.751,25.73,42.49,10.63,140.3,73.39,135.4,148703,2016-04-11 18:03:27:775
-3.3873,-9.0065,-2.301,-2.4197,-9.4992,-0.2838,1.0532,0.2628,0.7348,1.1346,0.7433,0.3807,28.27,42.33,0.88,148.57,75.8,111.54,148803,2016-04-11 18:03:27:875
1.5693,-10.5853,-1.5413,-2.8346,-9.3841,0.2732,-0.3377,-0.7075,-1.8767,1.0816,0.2811,0.8281,29.19,42.19,-0.77,165.86,75.62,96.69,148903,2016-04-11 18:03:27:975
1.3717,-9.8083,-0.181,-3.4407,-9.1569,0.695,6.6724,-1.4637,-0.9829,0.0155,0.1466,0.188,34.25,36.73,-3.57,187.87,70.03,78.79,149003,2016-04-11 18:03:28:075
-2.5186,-11.9209,-0.9375,-3.0706,-9.3129,0.105,3.9893,-2.1423,-1.8314,-1.7499,-0.2284,-1.0278,34.63,37.15,-2.62,191.65,69.03,78.58,149104,2016-04-11 18:03:28:176
-7.1618,-13.9362,-1.462,-1.2592,-9.4012,-2.4904,-6.1821,-5.0799,1.8923,-1.8571,1.5718,-1.2537,27.66,42.48,6.95,105.73,73.47,153.18,149204,2016-04-11 18:03:28:276
-1.8059,-6.8011,0.6789,-0.2532,-9.1577,-3.4989,-1.2243,-0.8717,3.5904,-1.8571,1.5718,-1.2537,27.66,42.48,6.95,105.73,73.47,153.18,149304,2016-04-11 18:03:28:376
-3.3331,-3.2247,1.619,-0.0129,-8.6189,-4.6782,-2.5267,3.756,6.2868,-1.2495,-2.0268,-1.1175,18.39,44.51,20.43,77.9,61.51,179.84,149404,2016-04-11 18:03:28:476
3.4922,-14.2618,-9.5371,-0.8439,-8.9673,-3.8788,3.0996,-3.479,-4.6718,1.1347,-1.0143,0.3717,20.56,43.38,18.1,88.61,64.07,173.07,149503,2016-04-11 18:03:28:575
-7.5013,-17.2047,-2.3943,-0.944,-8.9391,-3.9208,4.4113,-2.9851,-2.4692,-0.0381,-1.0282,-0.0133,22.77,45.65,14.76,87.82,65.72,166.46,149603,2016-04-11 18:03:28:675
-2.0936,-12.1218,-0.5864,-2.0011,-9.1072,-3.0371,-3.5907,5.6771,7.1945,1.191,1.3631,1.3209,22.94,44.24,13.52,118.67,68.23,146.62,149703,2016-04-11 18:03:28:775
1.0388,-7.9612,3.9255,-2.6692,-9.2456,-1.8882,1.1,-3.4448,1.2494,1.096,-0.6692,1.3156,25.95,42.46,12.04,114.9,68.23,146.62,149803,2016-04-11 18:03:28:875
-4.815,-9.4159,-3.6116,-2.509,-9.4611,-0.6028,-1.9053,-0.0523,-0.5675,0.751,1.2264,-0.1631,30.1,42.31,1,147.48,73.82,111.15,149903,2016-04-11 18:03:28:975
-1.7308,-10.7156,1.0041,-2.7596,-9.41,-0.0781,0.8144,-0.6458,0.5917,1.1395,0.6453,0.3757,29.58,42.47,0.92,160.78,74.74,103.51,150003,2016-04-11 18:03:29:075
1.6469,-10.178,-0.0286,-3.2815,-9.2119,0.7362,6.8048,-0.8513,-1.0419,0.7309,0.0255,0.4559,32.72,39.54,-0.99,188.61,71.11,83.48,150103,2016-04-11 18:03:29:175
1.0571,-11.515,-3.3273,-3.1349,-9.2824,0.4247,3.0442,-1.7151,-1.8419,-0.1866,0.5382,-0.1644,34.58,37.99,-2.81,184.71,71.18,82.28,150204,2016-04-11 18:03:29:276
-8.1232,-15.5696,-0.907,-1.5882,-9.4896,-1.8963,-1.3428,-3.3228,2.1138,-2.105,-0.1746,-1.4899,31.43,39.54,3.29,165.68,74.85,104.6,150304,2016-04-11 18:03:29:376
-1.1,-7.7302,-2.7513,-0.7229,-9.3791,-2.7713,-6.858,-5.1058,2.4482,-1.3729,1.4789,-1.1626,28.28,41.44,8.29,94.99,73.02,165.38,150403,2016-04-11 18:03:29:475
-3.1525,-3.4104,1.4362,0.4532,-8.9145,-4.0616,-1.9722,0.3692,3.8904,-1.0761,-1.5435,-0.9481,20.41,43.93,16.49,74.76,65.37,-173.63,150503,2016-04-11 18:03:29:575
0.6106,-7.216,-6.4737,-0.0147,-8.8686,-4.1855,-2.5662,4.0622,5.411,-0.0615,-1.6676,0.0247,19.52,43.97,17.02,77.07,65.37,-173.63,150603,2016-04-11 18:03:29:675
-1.581,-9.2299,-4.4667,-0.4852,-9.0881,-3.6527,0.6641,-1.3512,-4.3245,0.3687,-0.8156,-0.1787,22.3,44.82,14.01,81.2,66.56,174.5,150703,2016-04-11 18:03:29:775
-5.6706,-9.2867,-0.6171,-0.6941,-9.2122,-3.2899,-4.4146,-2.488,1.7768,0.6776,0.342,0.451,22.65,45.06,12.93,84.15,67.93,172.43,150805,2016-04-11 18:03:29:877
-2.974,-10.6489,1.7819,-1.7007,-9.444,-2.0222,-1.9209,1.641,5.5879,1.3082,1.7349,1.2292,24.92,42.93,10.03,131.62,74.37,139.94,150903,2016-04-11 18:03:29:975
-2.2588,-8.3662,0.9962,-1.6571,-9.6458,-0.6182,1.1723,1.1967,2.294,2.0334,-0.4446,-0.0615,28.34,40.85,6.95,139.98,76.06,130.34,151003,2016-04-11 18:03:30:075
-3.7168,-9.9489,-3.7196,-1.7464,-9.6406,0.4238,-0.6768,-0.2713,-0.7245,1.3328,1.1182,0.1897,27.98,41.12,0.32,152,79.61,110.46,151103,2016-04-11 18:03:30:175
1.0902,-11.3691,-1.6884,-2.7164,-9.3411,1.2389,1.7861,-1.196,-0.5301,0.6591,0.3502,0.8078,31.98,39.21,-0.32,219.94,72.28,65.48,151203,2016-04-11 18:03:30:275
1.8688,-10.154,0.0327,-2.8717,-9.2698,1.4119,5.2012,-1.7507,-3.5155,0.4534,0.7227,-0.1782,34.29,37.9,-1.53,217.4,70.95,63.82,151303,2016-04-11 18:03:30:375
-2.474,-12.2085,-0.7621,-1.8998,-9.6207,-0.0618,0.1581,-2.7525,-0.9616,-1.2691,-0.5944,-0.543,35.13,37.75,-1.61,211.01,73.28,66.15,151403,2016-04-11 18:03:30:475
-7.312,-13.7732,0.7802,-1.1499,-9.6142,-1.5542,-6.5546,-5.7988,3.3828,-2.7539,-0.2736,-1.6343,33.52,39.32,3.32,119.58,78.63,143.5,151503,2016-04-11 18:03:30:575
-2.0983,-5.1887,0.8918,0.49,-9.2656,-3.1748,-1.2753,1.1901,2.7402,-0.8992,-0.383,-1.7724,24.59,43.33,14.84,82.23,70.88,-171.23,151603,2016-04-11 18:03:30:675
-3.493,-2.2576,1.435,0.4206,-9.0036,-3.8637,-2.8277,4.748,5.4815,-1.4534,-2.1037,-1.2239,20.07,44.18,20.7,89.33,66.65,-173.79,151703,2016-04-11 18:03:30:775
4.1815,-17.9481,-12.0621,-0.3934,-9.2184,-3.3221,0.9102,-0.3931,-4.7088,0.9898,-1.0705,0.3658,22.42,43.76,19.62,97.86,68.33,178.25,151803,2016-04-11 18:03:30:875
-6.474,-13.2192,0.4781,-0.3259,-9.2197,-3.3259,2.9012,-5.9262,-6.079,-0.0153,-0.6491,-0.1983,24.12,44.03,14.91,93.17,70.08,174.4,151903,2016-04-11 18:03:30:975
-1.317,-11.6076,0.6049,-1.4684,-9.4065,-2.3521,-5.9241,4.6972,4.1376,1.036,1.414,1.4716,23.21,43.93,13.83,99.7,71.75,169.11,152003,2016-04-11 18:03:31:075
2.5115,-8.4204,2.9986,-2.2157,-9.5309,-0.6503,5.051,-1.5912,1.7096,1.3039,-0.2083,0.2148,28.64,41.41,9.81,184.06,76.38,106.36,152103,2016-04-11 18:03:31:175
-5.205,-9.2484,-3.7624,-2.3504,-9.5054,0.5424,-1.3441,0.3993,-0.7581,2.3629,1.3349,0.0971,29.38,41.8,5.65,218.14,75.76,77.01,152204,2016-04-11 18:03:31:276
-0.2355,-11.2917,0.872,-3.3687,-9.1308,1.2048,3.5683,-2.2228,-0.9682,0.6749,0.6487,1.0155,30.64,40.99,1.31,223.71,68.6,70.32,152303,2016-04-11 18:03:31:375
0.5002,-12.5823,-0.6845,-3.5161,-9.0453,1.4107,8.7629,-1.0771,-2.9825,0.5447,0.3348,0.3981,33.19,38.97,0.36,217.08,68.6,70.32,152403,2016-04-11 18:03:31:475
-0.6164,-11.7574,-1.7607,-2.5619,-9.4655,-0.1054,2.4282,-2.1992,-2.4748,-2.0434,-0.3533,-1.0739,33.31,38.72,2.92,184.32,74.84,92.36,152503,2016-04-11 18:03:31:575
-5.3846,-12.3148,0.8606,-1.726,-9.5439,-1.4508,-3.3673,-3.8973,3.2056,-2.154,0.2385,-1.3967,29.67,41.06,7.34,197.31,74.84,92.36,152603,2016-04-11 18:03:31:675
-1.8437,-6.2857,1.0144,0.1465,-9.3854,-2.8397,-0.718,-1.1543,1.2761,-1.3914,-1.3815,-1.6017,20.27,43.44,16.7,131.59,76.69,161.36,152703,2016-04-11 18:03:31:775
-3.7392,-2.0661,1.1649,0.0932,-9.1137,-3.6196,-2.047,3.2086,4.5015,-1.0413,-2.392,-0.6407,18.97,44.69,19.48,91.71,68.33,-178.52,152805,2016-04-11 18:03:31:877
3.2437,-18.1099,-11.3202,-1.012,-9.3366,-2.8239,-2.6712,6.9638,1.0039,0.8997,-0.8742,0.4631,20.28,43.65,16.09,95.45,69.21,172.39,152904,2016-04-11 18:03:31:976
-5.1907,-13.0078,0.0236,-1.1103,-9.4253,-2.4701,1.2711,-3.2239,-2.8969,0.3887,-0.6344,-0.2053,22.47,44.38,14.1,121.53,73.97,155.8,153003,2016-04-11 18:03:32:075
-2.3798,-9.3441,3.6591,-2.0721,-9.3831,-1.9582,-2.4589,2.4305,7.275,1.3914,1.943,1.8067,23.92,42.86,12.35,147.26,73.1,133.38,153103,2016-04-11 18:03:32:175
-0.3376,-8.1572,3.4464,-2.7361,-9.2818,-1.5912,1.8079,-2.2633,2.5562,0.2974,0.3428,0.8678,27.61,42.22,11.76,145.25,73.1,133.38,153203,2016-04-11 18:03:32:275
-3.0551,-9.66,-4.9852,-2.9576,-9.288,1.0752,1.0186,0.1467,-1.9377,1.714,1.5488,-0.0965,28.51,41.62,3.47,177.37,72.36,97.26,153303,2016-04-11 18:03:32:375
0.216,-11.9354,-0.7615,-3.3302,-9.1259,1.3412,-0.2543,-0.7343,-4.6956,1.714,1.5488,-0.0965,28.51,41.62,3.47,177.37,72.36,97.26,153407,2016-04-11 18:03:32:479
2.9064,-9.3453,0.8262,-4.1125,-8.6548,2.086,5.6324,-3.2989,-4.3056,1.2881,-0.1644,0.9228,31.09,40.39,0.63,250.81,61.95,63.1,153503,2016-04-11 18:03:32:575
-1.5143,-11.8257,-2.3618,-3.5835,-9.069,1.04,4.7032,-2.0063,-3.0209,-0.7034,-0.1333,-0.2029,34.02,38.51,0.01,211.68,67.64,73.82,153603,2016-04-11 18:03:32:675
-7.644,-15.8121,0.4634,-2.6313,-9.439,-0.3891,2.0367,-2.5836,-0.1429,-2.392,0.2109,-1.3506,32.72,39.67,1.12,216.3,67.64,73.82,153704,2016-04-11 18:03:32:776
-0.6412,-9.1814,-0.9459,-0.6484,-9.3999,-2.7188,1.8017,-0.6032,1.1965,-1.7188,1.3524,-1.3557,24.94,41.85,12.14,102.51,73.44,166.59,153803,2016-04-11 18:03:32:875
-3.2607,-3.949,2.4354,-0.2521,-9.1533,-3.5105,-1.8216,3.8988,4.6993,-1.6157,-1.4306,-1.6192,20.21,42.41,17.49,118.23,73.44,166.59,153903,2016-04-11 18:03:32:975
-3.9707,-3.9552,-2.7822,-1.0232,-9.2404,-3.1207,-2.0885,4.2623,-0.4682,0.61,-1.2641,0.2648,19.35,43.6,18.17,119.21,70.43,161.85,154003,2016-04-11 18:03:33:075
-0.8147,-11.6327,-3.1009,-1.1012,-9.3386,-2.7836,4.593,-6.0148,-7.1812,0.7506,-0.9144,0.1725,21.26,43.93,15.78,111.03,70.43,161.85,154104,2016-04-11 18:03:33:176
-9.1614,-0.258,0.4948,-1.264,-9.4082,-2.4616,-7.575,-1.1648,0.4322,0.5513,1.6683,0.6371,21.37,45.47,12.28,117.07,73.61,152.82,154203,2016-04-11 18:03:33:275
2.6297,-12.6576,1.642,-2.2034,-9.4254,-1.5736,-1.7452,4.2451,8.0424,1.4563,0.9392,1.6018,22.69,44.33,12.37,117.82,73.61,152.82,154303,2016-04-11 18:03:33:375
-0.5231,-7.3128,1.2991,-2.8567,-9.3799,0.1632,4.9019,0.5123,-1.8325,1.426,0.5105,0.1122,30.87,41.65,5.55,204.5,73.04,86.73,154403,2016-04-11 18:03:33:475
-1.8384,-9.3031,-0.4637,-2.7965,-9.3574,0.8885,0.8655,1.0668,1.9134,1.3391,0.7059,-0.1418,29.9,41.56,2.72,220.78,72.59,72.37,154504,2016-04-11 18:03:33:576
1.5502,-11.1857,-2.3803,-3.7515,-8.9016,1.6905,4.8097,-2.4755,-3.3653,0.7401,0.4171,0.9318,32.1,39.68,1.59,231.01,68.92,65.81,154603,2016-04-11 18:03:33:675
1.9916,-11.5253,-0.5675,-3.8821,-8.8046,1.8917,7.2902,-2.0038,-1.9321,0.3355,0.0295,0.3228,34.16,38.4,0.28,228.88,65.19,65.74,154705,2016-04-11 18:03:33:777
-3.4683,-11.2028,0.3648,-2.7276,-9.4049,0.5269,-1.0277,-2.558,-3.4106,-2.0684,-0.5636,-1.3826,33.88,38.42,1.67,231.15,66.93,65.52,154804,2016-04-11 18:03:33:876
-1.5139,-11.3383,-1.4809,-1.9298,-9.5686,-0.942,-2.9757,-4.0426,1.8183,-2.2244,0.7555,-1.1886,29.58,40.91,6.79,219.28,73.54,79.07,154904,2016-04-11 18:03:33:976
-2.5208,-5.2213,0.7238,-0.0672,-9.4746,-2.5293,0.1432,0.6338,1.3987,-1.2208,-0.8068,-1.457,20.36,42.84,18.34,109.22,75.05,178.48,155003,2016-04-11 18:03:34:075
-3.002,-3.7271,-2.9928,-0.419,-9.4316,-2.6531,-2.9824,5.7698,2.9502,0.8285,-1.2813,0.5423,20.28,44.33,19.38,102.26,72.39,-178.88,155103,2016-04-11 18:03:34:175
2.6069,-13.2575,-10.2468,-0.8007,-9.4911,-2.3341,-0.1245,3.1185,-2.437,0.1912,-0.5367,0.2223,22.69,42.9,16.82,126.38,75.43,161.06,155204,2016-04-11 18:03:34:276
-7.2281,-10.3638,-2.6785,-0.9157,-9.5185,-2.175,-7.6237,-2.4326,0.1614,0.3071,1.3232,0.6963,24.51,43.47,14.7,118.45,75.62,162.48,155303,2016-04-11 18:03:34:375
-2.7342,-11.3729,2.1845,-1.6094,-9.5515,-1.5328,-2.2459,1.1792,6.1329,1.7969,0.9113,1.7056,24.21,43.52,13.37,155.53,76.9,133.6,155403,2016-04-11 18:03:34:475
-0.7439,-7.5348,-0.2894,-2.5089,-9.4594,-0.6295,4.1162,0.8258,0.8269,0.0092,-0.9999,0.9243,26.78,42.66,11.16,193.95,74.71,104.09,155503,2016-04-11 18:03:34:575
-3.4662,-10.1928,-3.973,-2.4027,-9.5067,0.1446,-0.2804,0.9038,2.8205,1.0127,1.1948,-0.3383,30.07,39.8,9.49,209.99,75.79,86.55,155603,2016-04-11 18:03:34:675
1.8748,-10.8378,-1.2347,-3.2355,-9.2151,0.8851,1.4593,-1.0004,0.2466,0.4747,1.2077,0.7636,32.11,40.92,1.86,206.32,73.76,77.37,155703,2016-04-11 18:03:34:775
1.6484,-9.7626,-0.4831,-3.581,-9.0568,1.1489,5.3039,-1.8524,-2.6754,0.8139,-0.1593,1.011,31.27,40.07,2.02,215.99,70,74.7,155803,2016-04-11 18:03:34:875
-2.2631,-12.0168,-1.4549,-3.0721,-9.3121,0.1349,4.1543,-2.0776,-2.1561,-0.8216,0.0403,-0.3289,35.57,35.73,0.83,186.45,71.73,87.48,155903,2016-04-11 18:03:34:975
-2.5648,-11.5044,1.6525,-1.0505,-9.4353,-2.4581,-4.8592,-4.8933,3.7787,-2.1136,0.4427,-1.6063,31.43,40.56,8.55,156.02,75.65,122.11,156003,2016-04-11 18:03:35:075
-1.3918,-7.3654,0.5892,-0.0556,-9.2363,-3.2952,0.8974,-1.6724,1.4626,-1.407,1.2782,-1.2931,25.72,43.18,15.28,90.2,70.36,179.03,156104,2016-04-11 18:03:35:176
-3.3893,-3.1385,1.4429,-0.0489,-8.9155,-4.0844,-3.5029,5.6609,5.2278,-0.3455,-2.226,-0.7016,18.89,43.6,22.03,95.73,65.38,179.31,156205,2016-04-11 18:03:35:277
3.0503,-14.9859,-8.5046,-0.5566,-9.0479,-3.7412,-3.2209,3.5794,0.1858,0.5247,-1.3055,0.1975,20.1,43.1,20.78,94.05,65.38,179.31,156305,2016-04-11 18:03:35:377
-0.1055,-8.0397,-1.9416,-0.6297,-9.1721,-3.4127,1.6718,-1.6323,-1.0932,0.2919,-0.1091,-0.1277,23.01,45.46,15.07,92.32,67.89,168.92,156404,2016-04-11 18:03:35:476
-1.5269,-5.1691,5.1806,-0.9097,-9.2815,-3.0327,-5.6401,-0.9289,2.4274,0.6587,0.8098,0.5704,21.85,44.71,11.53,97.54,71.16,163.3,156506,2016-04-11 18:03:35:578
-3.3026,-12.2476,0.5662,-2.1634,-9.3775,-1.8851,-0.443,1.7902,4.1896,0.6786,0.0179,1.1228,26.54,43.35,8.35,135.49,72.99,131.07,156603,2016-04-11 18:03:35:675
-0.8989,-9.7953,4.8174,-2.431,-9.372,-1.5579,1.7341,-2.4372,3.5464,0.6303,0.3339,0.4401,29.15,41.65,7.25,133.38,72.99,131.07,156703,2016-04-11 18:03:35:775
-2.0685,-9.6845,-2.2972,-2.3531,-9.5121,-0.392,0.1499,-0.308,2.0331,0.9904,1.6936,0.3492,29.96,40.34,1.9,153.69,75.75,111.03,156803,2016-04-11 18:03:35:875
2.4435,-10.0636,-2.4974,-2.8006,-9.3983,-0.0065,2.2733,-1.2508,-0.3975,0.8421,0.0465,0.8509,31.37,40.4,2.95,189.09,73.41,90.13,156903,2016-04-11 18:03:35:975
-0.5361,-11.9916,-0.1491,-3.1751,-9.2726,0.3293,3.2401,-2.6341,-0.2941,0.207,0.1543,0.1402,34.42,38.11,-0.15,190.14,71,84.08,157003,2016-04-11 18:03:36:075
-3.1353,-10.999,-0.4694,-2.814,-9.3916,-0.2248,4.3289,-1.6319,-2.4146,-1.4163,0.1026,-0.7602,35.21,38.73,-0.23,190.12,71,84.08,157103,2016-04-11 18:03:36:175
-7.7159,-14.6602,1.0556,-1.172,-9.3204,-2.8155,-5.3243,-5.2142,4.1677,-1.8657,1.6468,-0.9596,27.08,42.3,9.52,151.83,75,127.33,157203,2016-04-11 18:03:36:275
-1.8458,-7.9576,-0.8118,-0.0534,-9.1348,-3.5668,-2.5896,-2.1906,4.4104,-1.098,0.5446,-1.9493,23.69,43.31,16.42,120.51,71.88,157.4,157303,2016-04-11 18:03:36:375
-3.3287,-2.7197,1.6764,0.4064,-8.6051,-4.686,-3.4954,3.6128,5.8204,-0.1264,-1.8625,-0.2226,18.26,44.1,20.21,75.77,61.34,-175.04,157403,2016-04-11 18:03:36:475
3.6726,-17.1673,-9.8781,-0.486,-8.8606,-4.1742,-1.3514,2.2368,-0.8558,0.9516,-0.8976,0.5714,20.05,43.87,18.39,81.15,63.31,177.79,157503,2016-04-11 18:03:36:575
-3.9853,-13.6507,-2.4853,-0.435,-8.8514,-4.1993,3.6682,-7.3091,-5.6591,-0.1404,-0.2379,-0.096,21.97,44.37,16.82,86.26,64.63,173.36,157603,2016-04-11 18:03:36:675
-2.9286,-9.0506,5.3564,-1.4129,-9.2204,-3.0264,-1.603,0.9938,7.8292,0.7729,1.3793,1.2268,22.87,45.12,13.58,83.9,65.74,169.59,157703,2016-04-11 18:03:36:775
3.0329,-11.1328,1.7341,-2.2081,-9.2792,-2.2785,1.781,-3.7178,1.6812,2.2937,0.9119,1.8456,23.86,43.46,12.17,107.09,70.09,154.97,157804,2016-04-11 18:03:36:876
-3.6574,-9.9901,1.8097,-2.007,-9.5112,-1.2961,-0.1144,0.4833,3.6631,1.0854,0.9468,-0.3488,29.96,40.11,6.26,147.82,75.9,122.85,157903,2016-04-11 18:03:36:975
-1.8473,-9.1621,1.2215,-2.0847,-9.5407,-0.8944,-1.7236,-0.2315,-2.5675,1.4262,1.6792,-0.1115,30.33,41.03,3.35,139.37,75.9,122.85,158004,2016-04-11 18:03:37:076
2.3081,-10.4137,0.1893,-3.0067,-9.3341,-0.0734,3.1123,-1.8229,-1.6955,0.853,-0.365,0.8968,30.93,40.07,1.36,180.81,72.14,91.4,158103,2016-04-11 18:03:37:175
0.2984,-12.2954,-2.4937,-3.0517,-9.3197,-0.0023,5.3946,-1.1626,0.5727,0.1303,0.1631,0.3389,33.75,38.06,-0.56,174.94,72.14,91.4,158203,2016-04-11 18:03:37:275
-5.5139,-12.4226,1.4995,-1.8187,-9.4766,-1.7484,3.4228,-1.8238,-0.8016,-2.0502,-0.5257,-1.2634,35.02,37.8,-0.2,165.35,73.88,99.71,158303,2016-04-11 18:03:37:375
-4.5209,-11.7331,1.9664,-0.9444,-9.2331,-3.1666,-3.8173,-2.9951,4.3577,-2.4203,0.218,-1.4607,29.8,40.49,4.36,126.58,75.09,133.87,158403,2016-04-11 18:03:37:475
-2.7964,-4.9637,1.3302,0.8744,-8.4495,-4.9001,-3.1473,1.6833,4.9077,-1.3379,-0.8791,-1.8065,21.38,43.79,17.42,64.88,59.5,-169.88,158503,2016-04-11 18:03:37:575
-4.5436,-6.515,-5.796,-0.3637,-8.3669,-5.1023,-3.8037,5.5823,3.9442,0.5842,-1.4993,0.3306,18.9,44.09,20.35,66.57,56.43,-175.95,158604,2016-04-11 18:03:37:676
1.8117,-12.8584,-7.0532,-0.5825,-8.5128,-4.8336,2.4209,-6.0288,-5.3003,0.4154,-0.48,0.1389,21.66,43.22,16.33,70.23,58.56,175.92,158703,2016-04-11 18:03:37:775
-8.7938,-12.7446,-3.6743,-0.4869,-8.7494,-4.4025,-6.4296,-2.8456,3.3364,0.4731,1.1359,0.581,23.09,45.73,13.71,69.15,61.11,175.02,158803,2016-04-11 18:03:37:875
-2.8042,-8.6306,2.4612,-0.9421,-8.9402,-3.9186,-3.2232,0.5154,6.043,1.037,1.4641,1.4907,23.73,44.24,12.9,75.04,63.15,173.69,158903,2016-04-11 18:03:37:975
0.6418,-7.7917,-2.9689,-1.8513,-9.1492,-3.0059,2.9825,-2.4628,3.9895,0.9927,0.5601,0.1928,28.83,40.46,10.54,114.25,68.9,148.37,159003,2016-04-11 18:03:38:075
-3.7571,-9.3578,-1.3802,-1.5398,-9.4295,-2.2099,1.6788,1.1052,1.3983,1.6345,1.6479,-0.1506,30.45,41.48,5.72,115.19,74.06,145.13,159103,2016-04-11 18:03:38:175
0.7275,-11.1659,-1.3374,-2.0568,-9.5212,-1.1345,1.903,-1.8023,0.8078,1.0146,0.0093,0.9014,31.06,40.81,2.51,145.47,76.14,118.88,159203,2016-04-11 18:03:38:275
2.7796,-10.5357,0.6338,-2.3193,-9.4984,-0.7567,5.419,-0.8612,-0.3948,0.2613,0.0564,0.3224,34.12,39.23,0.49,139.99,76.14,118.88,159303,2016-04-11 18:03:38:375
-2.1316,-11.209,-1.726,-1.7216,-9.4859,-1.7957,2.2011,-2.399,-1.7604,-2.3806,0.1064,-1.3244,33.56,38.85,0.86,119.63,75.31,136.21,159403,2016-04-11 18:03:38:475
-8.0063,-14.2209,1.4564,-0.8525,-9.2241,-3.2185,-2.9412,-3.2852,3.4897,-2.3518,-0.3456,-1.5932,31.34,39.57,4.3,124.34,75.31,136.21,159504,2016-04-11 18:03:38:576
-1.774,-6.4185,0.0487,1.3391,-8.5361,-4.6382,-2.0079,-2.7361,2.496,-1.0213,2.6254,-1.3212,25.26,42.9,13.85,75.82,65.38,-176.72,159604,2016-04-11 18:03:38:676
-2.9613,-3.0524,1.2592,1.3944,-8.0938,-5.3588,-3.287,1.3098,5.1561,-1.464,-0.906,-1.6999,18.87,44.72,17.88,63.31,60.51,-163.9,159703,2016-04-11 18:03:38:775
5.5901,-16.5796,-9.3975,0.0325,-8.3082,-5.21,-3.2138,5.2059,4.0808,0.4356,-1.3719,0.4205,17.82,44.27,21.59,75.08,57.91,-179.64,159803,2016-04-11 18:03:38:875
-4.2268,-12.6571,1.8428,-0.2702,-8.4871,-4.9058,2.958,-4.869,-3.4912,0.8176,-1.0033,0.4445,19.56,45,20.13,77.13,59.93,176.85,159903,2016-04-11 18:03:38:975
-3.6859,-5.1445,5.1412,-0.3294,-8.9859,-3.9136,-4.1065,1.997,7.9652,0.9732,1.5359,0.5997,20.03,45,14.34,78.84,66.39,175.19,160003,2016-04-11 18:03:39:075
2.2024,-11.2789,1.916,-1.5903,-9.4308,-2.1683,3.4244,-1.9915,2.3294,1.2796,-0.0467,1.2279,24.51,43.02,13.29,99.39,69.85,164.01,160103,2016-04-11 18:03:39:175
-1.106,-8.2061,2.2293,-1.6228,-9.6046,-1.1349,2.7407,1.5282,0.0828,1.9071,-0.9293,0.3984,28.13,41.99,9.5,123.42,74.09,143.74,160204,2016-04-11 18:03:39:276
-1.6279,-9.6973,1.2811,-1.9441,-9.6099,0.1999,-1.0784,-0.1867,-1.5948,1.2333,0.4999,0.503,28.94,42.1,3.93,169.18,80.78,106.06,160303,2016-04-11 18:03:39:375
2.5807,-10.9222,-2.5658,-2.4569,-9.4808,0.4975,2.8141,-1.6631,-0.5266,0.6342,0.2009,0.9567,29.69,41.86,3.02,196.39,78.5,84.13,160403,2016-04-11 18:03:39:475
2.091,-10.5315,-3.0656,-2.3477,-9.5177,0.2695,3.1337,-2.9769,-1.05,-0.4141,-0.0206,-0.266,33.4,38.58,0.66,202.63,74.21,77.02,160503,2016-04-11 18:03:39:575
-2.8544,-11.7403,0.5854,-1.6541,-9.6167,-0.9763,2.2459,-1.8581,-2.4282,-1.954,-0.4516,-1.0525,31.24,39.58,1.21,141.68,78.7,120.55,160603,2016-04-11 18:03:39:675
1.6989,-10.5591,-1.6167,0.2902,-9.2791,-3.1597,-7.1804,-5.5628,4.2473,-1.3839,0.8616,-1.6237,25.67,42.14,12.78,82.45,71.12,-174.75,160703,2016-04-11 18:03:39:775
-2.7924,-5.1868,0.4569,1.1191,-8.9912,-3.7518,-3.0507,2.0701,3.5608,-1.0313,-0.6712,-1.6525,19.73,44.19,18.07,73.95,66.47,-163.39,160803,2016-04-11 18:03:39:875
-3.5265,-4.329,-3.1238,0.4286,-8.8874,-4.1232,-4.4257,5.9102,3.9275,0.5848,-1.3139,0.2697,18.11,44.69,20.11,82.36,64.99,-174.07,160903,2016-04-11 18:03:39:975
4.1986,-15.8335,-9.9161,0.2098,-9.0143,-3.8561,1.8934,-4.6019,-5.602,0.3985,-0.5449,0.041,19.86,44.32,17.81,78.95,64.99,-174.07,161003,2016-04-11 18:03:40:075
-8.6085,-4.681,-1.0858,-0.0017,-9.1614,-3.4985,-6.1203,-3.0814,3.3491,0.4711,0.9529,0.6272,20.88,45.56,14.29,81.01,69.1,179.97,161103,2016-04-11 18:03:40:175
-1.5183,-12.161,0.8379,-0.7795,-9.3475,-2.8612,-6.1899,3.6196,5.0988,1.393,1.7507,2.0297,20.95,44.71,13.58,81.96,69.1,179.97,161203,2016-04-11 18:03:40:275
-0.5182,-8.3203,0.5832,-1.9198,-9.4717,-1.6648,4.713,-1.4962,2.1185,0.891,0.3859,-0.0864,30.68,42.31,7.37,137.1,74.98,130.93,161303,2016-04-11 18:03:40:375
-5.2927,-10.1557,-6.1202,-1.7883,-9.6396,-0.2251,-2.472,-0.3532,1.0178,0.5231,1.3087,0.6951,28.85,42,3.84,180.94,79.41,97.17,161403,2016-04-11 18:03:40:475
2.5639,-11.3038,-2.2927,-2.4054,-9.507,0.0275,-0.6936,-0.7892,-2.2108,0.8396,-0.0127,1.0682,31.76,39.99,0.61,183.69,75.8,89.35,161504,2016-04-11 18:03:40:576
1.7404,-11.28,-1.3779,-2.4726,-9.4879,0.1914,3.6657,-2.3841,-1.342,-0.7255,-0.2356,-0.4867,33.29,37.24,-1.49,183.93,75.35,85.57,161603,2016-04-11 18:03:40:675
-2.1992,-11.7841,-0.4681,-1.8455,-9.586,-0.9347,1.2297,-2.4068,-2.0775,-0.7255,-0.2356,-0.4867,33.29,37.24,-1.49,183.93,75.35,85.57,161703,2016-04-11 18:03:40:775
-0.3424,-10.8325,0.8217,-0.0332,-9.2321,-3.3071,-6.0981,-4.7925,4.4265,-2.1336,0.2103,-1.4789,29.61,41,9.01,80.38,70.29,179.43,161803,2016-04-11 18:03:40:875
-2.172,-4.8929,1.0676,0.7887,-8.8818,-4.0819,0.3119,-0.7517,2.746,-1.1067,1.63,-1.1615,24.44,41.96,13.23,68.28,64.92,-169.06,161904,2016-04-11 18:03:40:976
-4.5794,-3.4566,-1.2626,0.2079,-8.6479,-4.6196,-3.7657,5.2956,5.7725,-0.2178,-2.0041,-0.3916,17.46,43.28,21.15,75.31,60.58,-171.5,162003,2016-04-11 18:03:41:075
4.2066,-14.1109,-10.4269,-0.1926,-8.8023,-4.319,-3.072,2.9631,0.2977,0.8323,-0.9236,0.3319,20.25,43.83,19.33,77.02,61.87,-177.42,162104,2016-04-11 18:03:41:176
-5.6794,-14.0684,-0.8546,-0.4137,-8.9862,-3.9047,-1.0628,-0.4195,0.8864,0.3557,-0.413,-0.041,22.18,45.72,14.56,74.66,63.96,177.45,162203,2016-04-11 18:03:41:275
-2.9795,-8.391,3.0741,-1.0105,-9.2326,-3.1477,-8.0456,-4.1237,2.9517,1.2873,1.3457,1.3027,23.16,43.28,13.08,81.66,66.4,173.95,162304,2016-04-11 18:03:41:376
0.2735,-7.7302,-1.3029,-2.1123,-9.4874,-1.3028,4.2495,-0.4193,2.8945,1.4627,-0.5257,0.9574,27.01,42.66,10.82,164.14,75.34,121.66,162403,2016-04-11 18:03:41:475
-3.8362,-9.3116,-2.271,-2.0714,-9.5847,0.1112,1.1816,0.5048,-0.3318,2.3836,-0.848,0.0379,29.29,42.02,7.47,204.16,77.79,86.93,162503,2016-04-11 18:03:41:575
1.3958,-11.0299,-2.6308,-2.7763,-9.34,1.1076,1.1064,-1.0554,-0.3621,0.9592,0.5425,0.8033,28.46,42.86,2.11,228.15,72.25,68.25,162604,2016-04-11 18:03:41:676
1.8832,-12.2662,0.7721,-3.1332,-9.1511,1.616,5.6639,-1.804,-1.1107,0.0626,-0.4124,0.2378,31.03,40.5,0.2,217.02,72.25,68.25,162703,2016-04-11 18:03:41:775
-1.4547,-9.7386,0.2624,-2.7375,-9.3835,0.7911,4.2346,-2.999,-2.4234,-1.396,-0.0592,-0.5549,33.62,38.54,-1.36,202.78,73.11,73.88,162803,2016-04-11 18:03:41:875
-6.3947,-14.4921,0.1732,-1.024,-9.484,-2.2751,-3.2023,-3.9605,2.9294,-2.2958,0.8219,-1.2881,28.93,41.81,5.44,102.11,75.26,155.77,162904,2016-04-11 18:03:41:976
-1.8825,-5.7895,-0.291,-0.0634,-9.2484,-3.261,-5.1285,-4.1009,3.7781,-1.6538,0.4923,-1.538,24.71,43.16,11.98,118.16,75.26,155.77,163003,2016-04-11 18:03:42:075
-3.1782,-4.3233,1.5009,0.2939,-8.7966,-4.3248,-3.8444,5.3777,5.2246,-0.2094,-1.7094,-0.3643,18.93,45.05,20.77,83.69,63.77,-176.11,163103,2016-04-11 18:03:42:175
4.3013,-17.2222,-9.6772,-0.1746,-8.9343,-4.0396,-1.1114,1.928,-1.7744,0.7359,-1.211,0.284,19.86,44.93,19.36,79.07,63.77,-176.11,163204,2016-04-11 18:03:42:276
-4.2326,-12.5661,-1.6133,-0.3036,-9.0606,-3.7395,-2.7639,-2.7046,2.1177,0.2495,0.8353,0.0706,21.57,45.05,13.38,80.22,67.51,175.36,163303,2016-04-11 18:03:42:375
-2.7525,-9.8645,4.3301,-0.6026,-9.2628,-3.1634,-7.8143,0.8286,2.8869,1.4048,1.4566,1.1462,21.75,45.79,14.65,84.1,67.51,175.36,163403,2016-04-11 18:03:42:475
2.0322,-10.4265,0.3124,-1.6659,-9.5818,-1.2591,1.7966,-2.1741,0.4389,1.767,-2.2603,0.5358,27.02,42.08,10.44,155.23,77.71,127.08,163503,2016-04-11 18:03:42:575
-3.8685,-9.1595,-0.085,-1.6615,-9.6528,-0.4836,2.0885,1.1767,1.2588,0.8358,3.1836,-0.2569,28.07,43.23,4,168.72,79.84,106.23,163603,2016-04-11 18:03:42:675
-1.0916,-9.9952,0.3113,-2.0537,-9.5837,0.3245,-0.1952,-0.3945,-1.0151,0.8474,1.0906,0.6607,29.66,43.18,2.98,201.52,77.76,81.02,163703,2016-04-11 18:03:42:775
0.8259,-9.959,0.0161,-2.4036,-9.4943,0.5005,1.7097,-1.0276,-0.8443,0.8474,1.0906,0.6607,29.66,43.18,2.98,201.52,77.76,81.02,163803,2016-04-11 18:03:42:875
-0.4126,-11.7789,-2.6257,-2.4421,-9.4957,0.1978,2.4849,-2.8141,-2.7567,0.0756,0.2988,0.2217,32.07,40.12,2.67,195.1,75.53,85.37,163903,2016-04-11 18:03:42:975
-5.9356,-12.1267,1.7978,-1.8068,-9.5894,-0.9747,-1.2049,-0.3672,-1.4787,-0.9525,0.3449,-0.5838,31.99,40.39,3.6,197.71,75.53,85.37,164003,2016-04-11 18:03:43:075
2.7616,-10.9936,0.3767,0.4213,-9.5198,-2.3166,-0.0985,-1.9115,2.4969,-0.9554,1.8312,-1.3701,27.02,42.47,17.02,92.83,76.11,-169.69,164103,2016-04-11 18:03:43:175
-2.3153,-5.9002,0.1686,1.5239,-9.301,-2.7091,-3.3717,2.7965,2.7468,-0.363,-2.1408,-1.2883,14.76,45.07,21.45,84.44,73.99,-149.6,164203,2016-04-11 18:03:43:275
-2.7529,-6.705,-3.2451,1.2296,-9.3511,-2.6862,-4.737,3.9697,2.3407,0.1996,-2.4768,-0.3521,13.39,45.82,20.89,87.75,72.47,-155.4,164303,2016-04-11 18:03:43:375
5.7742,-11.9824,-4.1239,1.1974,-9.4521,-2.3228,2.8628,-2.355,-3.3643,0.4466,-0.7442,-0.2655,17.13,47.47,14.03,69.52,74.55,-152.73,164403,2016-04-11 18:03:43:475
-13.3144,-9.4288,-0.2596,1.0834,-9.5318,-2.0352,3.2957,-0.5212,-0.6143,0.2622,-0.535,-0.0313,16.37,48.47,13.29,66.63,74.55,-152.73,164503,2016-04-11 18:03:43:575
-2.7424,-5.871,2.9018,0.1741,-9.6826,-1.5452,-2.308,-7.1599,-1.2853,-2.0000E-04,1.1799,0.6374,19.7,45.86,11.7,96.1,80.88,-173.57,164603,2016-04-11 18:03:43:675
-0.0725,-10.2626,2.6544,-0.3379,-9.7092,-1.3368,-1.3949,-0.4096,3.8339,0.185,-0.1882,0.7299,24.44,43.8,12.14,94.86,80.88,-173.57,164703,2016-04-11 18:03:43:775
-3.7186,-9.4358,-1.9643,-0.7889,-9.7745,0.0793,-1.579,0.1903,-1.7573,1.2266,0.5385,0.1637,26.86,43.26,4.7,140.3,84.62,134.67,164803,2016-04-11 18:03:43:875
-0.5798,-9.9733,-0.1245,-1.1954,-9.721,0.4941,-1.6085,0.6475,-1.4511,0.7481,0.519,0.5898,27.57,42.92,1.85,191.24,85.36,84.26,164904,2016-04-11 18:03:43:976
1.4373,-9.8072,0.9117,-2.1046,-9.5233,1.0241,3.0709,-0.8095,-1.8708,0.2934,-0.136,0.6313,31.83,40.29,1.08,219.66,76.19,64.05,165005,2016-04-11 18:03:44:077
-0.1887,-10.9093,-2.7217,-2.3069,-9.4752,1.0338,2.7062,-0.8529,-0.7602,0.0164,0.0606,0.3994,33.36,38.7,-0.46,215.32,75.06,65.86,165105,2016-04-11 18:03:44:177
-4.8554,-14.1295,4.3953,-1.5925,-9.629,-0.9574,4.5282,-1.816,-0.6451,-2.5501,-1.2966,-1.2895,32.81,38.39,2.84,201.92,76.48,79.59,165204,2016-04-11 18:03:44:276
-0.9157,-10.8121,-1.3172,-0.7604,-9.5322,-2.1746,-3.0442,-3.7886,4.3287,-1.7156,0.9032,-1.236,29.87,40.88,7.78,105.94,76.41,160.73,165304,2016-04-11 18:03:44:376
-3.8752,-4.8561,2.3863,1.0698,-9.1505,-3.3606,0.8982,-2.8556,2.4133,-1.0263,-2.5437,-1.563,20.94,42.64,16.29,92.49,73.84,-173.42,165403,2016-04-11 18:03:44:475
-5.6423,-3.4687,-1.7541,0.8021,-8.9502,-3.927,-5.2853,4.9231,5.3311,-0.3911,-2.5339,-0.5103,20.04,44.03,15.01,70,65.88,-168.46,165503,2016-04-11 18:03:44:575
2.8219,-10.6955,-5.9515,0.2162,-9.0389,-3.7977,0.5367,-1.8009,-2.943,0.1308,-0.546,-0.1165,22.25,44.37,10.97,67.35,66.25,-174.68,165603,2016-04-11 18:03:44:675
-8.4258,-18.5079,-5.3602,0.4604,-9.1219,-3.5707,-3.7983,-4.5839,-1.1252,-0.0088,0.7776,0.7084,19.55,45.59,11.63,67.92,67.71,-173.13,165703,2016-04-11 18:03:44:775
-3.7376,-10.7935,-0.1452,0.1159,-9.3077,-3.0859,-6.0723,0.5093,4.5125,1.36,1.9482,0.9967,21.1,45.57,11.99,69.6,68.46,-172.65,165804,2016-04-11 18:03:44:876
3.4649,-9.8113,-0.4485,-1.019,-9.6543,-1.3879,1.0383,-3.0661,1.4381,0.9007,0.0278,1.388,23.27,44.11,9.57,137.16,79.89,143.72,165903,2016-04-11 18:03:44:975
-1.9194,-9.5673,1.5781,-1.0571,-9.744,-0.3266,1.9169,1.3928,-1.5375,2.115,-0.0095,0.282,26.82,41.05,6.32,126.12,79.89,143.72,166003,2016-04-11 18:03:45:075
-0.8055,-8.5429,-2.0374,-1.6892,-9.5942,1.1264,-0.3293,0.5548,-3.6313,1.4933,0.9279,0.5187,27.17,43.07,0.91,231.6,78.05,56.3,166103,2016-04-11 18:03:45:175
0.7061,-7.4,1.0752,-2.0989,-9.4912,1.2971,1.4017,0.8953,-3.338,0.5926,0.5261,0.6738,28,40.82,-0.75,224.72,78.05,56.3,166203,2016-04-11 18:03:45:275
0.7387,-9.9034,-5.07,-2.7377,-9.2854,1.5675,3.1055,-0.8881,-4.5652,0.5475,0.4654,0.5402,33.78,37.95,-1.88,222.73,72.95,58.28,166303,2016-04-11 18:03:45:375
-3.4265,-11.6677,0.3463,-2.5541,-9.4582,0.4341,3.1664,-3.109,-5.7303,-0.6174,1.0636,0.0025,34.9,37.47,-2.02,221.34,71.23,60.21,166403,2016-04-11 18:03:45:475
-5.9349,-9.4822,-3.44,-0.7659,-9.6928,-1.2781,-5.815,-8.267,3.0667,-1.0911,-1.1479,-1.7688,30.41,40.17,9.24,128.51,81.26,149.07,166503,2016-04-11 18:03:45:575
-0.0979,-8.2388,0.67,0.0896,-9.647,-1.7601,-4.6901,2.1536,-0.0346,-0.7226,0.8118,-1.1979,26.13,43.49,10.6,93.84,79.65,-177.09,166603,2016-04-11 18:03:45:675
-5.7152,-2.7294,-1.3779,0.5144,-9.4149,-2.6955,-4.2219,4.694,4.6638,-0.5147,-2.4538,-0.5544,19.41,44.46,15.67,86.48,75.53,-163.41,166703,2016-04-11 18:03:45:775
3.6543,-11.758,-6.2518,0.335,-9.3003,-3.0924,3.4585,-3.0125,-4.1867,-0.1921,-0.5889,-0.2012,21.16,45.29,13.12,82.33,72.59,-174.67,166804,2016-04-11 18:03:45:876
-12.9835,-5.8256,3.6301,0.3609,-9.3621,-2.8969,1.3131,-0.9994,-3.652,0.4121,0.0704,0.0127,22.23,45.65,11.56,76.59,71.51,-173.82,166903,2016-04-11 18:03:45:975
-1.6389,-5.5235,4.1104,0.2786,-9.546,-2.2286,-2.5627,3.4084,6.4836,0.6373,2.0275,0.5331,24.4,45.95,8.32,72.32,74.05,-172.78,167003,2016-04-11 18:03:46:075
1.3618,-10.7321,4.2952,-0.259,-9.6168,-1.903,-2.5132,-0.0329,2.1883,0.3267,0.5814,1.0618,25.27,45.12,9.02,79.87,76.76,-172.87,167103,2016-04-11 18:03:46:175
-0.8921,-9.4203,-0.6883,-0.7539,-9.7422,0.832,-0.5141,0.9441,-1.8728,2.3414,1.0351,-0.0988,28.09,42.4,3.7,135.4,83.63,135.89,167203,2016-04-11 18:03:46:275
1.0361,-11.5812,-0.1119,-1.2363,-9.6144,1.4849,-3.3207,0.2598,-3.7409,1.0958,1.1442,0.6743,28.24,42.05,0.43,246.65,78.64,39.78,167303,2016-04-11 18:03:46:375
4.6366,-10.3945,0.2024,-2.0933,-9.3887,1.9082,6.0223,-1.4157,-2.5991,0.3002,0.517,0.11,33.27,39.29,-0.71,238.69,74.61,46.47,167403,2016-04-11 18:03:46:475
-4.3069,-10.6039,0.8528,-1.5861,-9.5597,1.5058,4.7913,-3.0938,-1.1252,-1.0396,0.116,-1.0782,32.69,39.36,-0.63,235.17,77.11,46.49,167503,2016-04-11 18:03:46:575
-4.5913,-12.385,-1.0804,0.2477,-9.746,-1.0603,-4.5122,-2.3974,2.0404,-1.9596,1.1682,-1.599,27.27,42.99,9.57,87.59,83.62,-166.85,167603,2016-04-11 18:03:46:675
-1.7534,-6.6136,-0.4604,1.2668,-9.5566,-1.7992,-6.2237,-3.4889,0.7337,-0.9367,0.8891,-1.5657,21.07,43.81,15.15,69.4,77.03,-144.85,167703,2016-04-11 18:03:46:775
-3.8823,-3.6528,1.3585,2.0928,-9.093,-3.018,-5.8213,4.7672,4.1847,-0.3148,-1.6269,-0.0917,13.85,44.35,22.13,73.52,68.01,-145.26,167803,2016-04-11 18:03:46:875
6.6399,-17.8818,-9.6896,1.6315,-9.2306,-2.8818,-4.7198,5.6612,0.9104,1.1924,-0.422,0.7559,15.13,45.05,21.52,80.19,70.26,-150.48,167903,2016-04-11 18:03:46:975
-4.9432,-7.628,2.0574,1.4575,-9.3411,-2.6059,-1.0134,0.1991,-2.3524,-0.0215,-0.5107,-0.1939,19.22,42.43,18.84,77.3,72.27,-150.78,168003,2016-04-11 18:03:47:075
-1.5555,-12.7002,2.8516,0.9163,-9.4551,-2.4354,-10.5258,-0.909,-0.1265,0.4285,-0.1333,-0.0284,18.54,45.72,18.66,74.76,72.27,-150.78,168103,2016-04-11 18:03:47:175
1.4199,-10.8251,-0.6267,-0.5239,-9.6923,-1.3986,-0.5799,1.1852,5.1062,1.1486,0.2738,1.0695,21.78,44.08,13.29,95.27,78.47,-175.28,168203,2016-04-11 18:03:47:275
-2.3473,-8.1684,5.7002,-0.9094,-9.7641,-0.0791,0.449,1.8827,-1.2445,1.237,0.2051,0.0706,27.12,41.72,8.02,142.61,82.29,136.64,168303,2016-04-11 18:03:47:375
-0.247,-10.6392,-0.5594,-1.311,-9.694,0.6908,-2.748,0.5519,0.7074,1.6481,1.3799,0.1724,26.43,41.61,7.34,191.86,84.66,94.97,168403,2016-04-11 18:03:47:475
4.7622,-9.8855,0.2801,-2.4626,-9.3988,1.33,3.3778,-1.7137,-2.8847,0.6469,0.2002,0.9401,31.02,40.87,2.81,227.25,76.48,62.34,168504,2016-04-11 18:03:47:576
0.7485,-11.4246,-1.9837,-2.4644,-9.4322,1.063,2.2521,-2.668,-4.2955,-0.1113,-0.1404,0.2085,33.26,37.8,1.72,219.66,74.12,66.67,168604,2016-04-11 18:03:47:676
-6.5811,-16.4547,0.6066,-0.8668,-9.6615,-1.4401,-4.3644,-5.3306,3.1022,-2.412,-0.4957,-1.7184,31.69,38.81,5.2,119.05,80.13,148.96,168704,2016-04-11 18:03:47:776
-1.5869,-9.3716,-0.8466,0.1543,-9.4761,-2.5199,-6.875,-3.7235,3.0739,-1.8815,0.5587,-1.6479,27.16,40.71,10.03,84.81,75.08,-176.5,168804,2016-04-11 18:03:47:876
-3.7496,-2.2767,1.3536,1.2836,-8.7862,-4.1625,-4.168,3.3757,5.7653,-1.0806,-1.6209,-1.1507,19.65,42.6,19.71,73.82,63.63,-162.86,168903,2016-04-11 18:03:47:975
2.817,-11.5289,-10.4521,0.7716,-8.8439,-4.1666,-4.709,6.257,5.2845,0.1441,-1.5995,0.036,18.57,43.51,21.83,83.4,64.4,-169.51,169003,2016-04-11 18:03:48:075
-10.8565,-9.1539,1.599,0.4049,-9.0001,-3.8737,3.0165,-5.7535,-4.407,0.2053,-0.4124,-0.4405,21.56,43.86,16.71,80.27,66.6,-174.03,169103,2016-04-11 18:03:48:175
-2.6562,-6.2499,5.0438,0.2374,-9.1148,-3.6103,-4.3787,1.1944,2.4926,0.4226,0.7181,0.6614,20.5,43.65,14.78,80.4,68.35,-176.24,169203,2016-04-11 18:03:48:275
-1.6097,-9.2514,-0.7474,-0.9427,-9.5029,-2.231,-3.1142,1.1478,6.5781,0.9107,0.8682,1.2745,23.58,42.67,12.83,94.63,72.48,173.88,169303,2016-04-11 18:03:48:375
-1.7632,-9.4885,3.3585,-1.4718,-9.6948,-0.1216,-0.0222,0.7573,1.2009,1.7682,-0.6194,0.563,26.59,41.32,10.43,113.18,75.7,157.1,169404,2016-04-11 18:03:48:476
-1.4021,-9.6434,-1.8769,-1.7755,-9.6369,0.3861,-0.8569,-0.3589,-2.9872,0.9263,1.2603,0.6048,28.61,43.59,3.5,208.1,79.32,77.73,169503,2016-04-11 18:03:48:575
3.8664,-9.7211,-0.4222,-2.6658,-9.3473,1.3011,4.6834,-1.3694,-2.7836,0.399,-0.2459,0.5173,32.6,38.45,1.36,212.55,75.28,69.18,169603,2016-04-11 18:03:48:675
0.5738,-10.9808,-2.9813,-2.7312,-9.3467,1.1624,4.3359,-1.547,-2.0696,-0.5001,0.0941,0.0995,33.1,39.24,-1.28,218.8,72.39,63.98,169703,2016-04-11 18:03:48:775
-6.4549,-15.3968,3.3635,-1.2076,-9.6507,-1.2553,-0.6155,-3.1288,1.0015,-2.2695,0.0647,-1.7608,30.54,42.25,5.68,203.31,76.86,85.09,169803,2016-04-11 18:03:48:875
-1.9679,-10.0539,-0.345,-0.1432,-9.5222,-2.3402,-7.3366,-6.0205,3.7138,-1.4771,2.1056,-1.4347,24.9,42.99,11.96,96.67,76.17,176.5,169903,2016-04-11 18:03:48:975
-2.5739,-3.9713,2.0686,1.109,-8.8377,-4.1031,-2.1451,1.3371,3.6359,-1.7716,-1.2031,-1.694,19.93,44.71,18.51,115.19,76.17,176.5,170004,2016-04-11 18:03:49:076
-3.3773,-2.799,-2.5368,0.6613,-8.8505,-4.1715,-2.9091,4.4935,5.9431,-0.7284,-2.284,-0.7599,15.39,44.5,22.03,80.3,64.32,-164.88,170104,2016-04-11 18:03:49:176
0.83,-8.7132,-3.6281,-0.1448,-9.1089,-3.6301,3.3321,-4.4377,-4.6236,0.6281,-1.0306,0.4747,21.1,45.11,17.76,92.3,68.26,177.72,170203,2016-04-11 18:03:49:275
-7.2604,-10.5553,0.98,-0.4481,-9.1937,-3.3832,-5.9804,-2.4643,0.6734,0.1878,-1.2681,-0.3646,23.74,44.01,15.27,94.15,69.64,172.45,170304,2016-04-11 18:03:49:376
-0.1045,-10.7129,-0.3046,-1.3005,-9.5378,-1.8732,-3.1232,-1.9178,4.688,1.4434,1.6335,0.8661,22.08,44.47,13.67,108.67,73.09,164.09,170405,2016-04-11 18:03:49:477
-0.3531,-8.2494,-2.5526,-1.818,-9.5884,-0.9633,2.405,-0.6338,2.3722,1.4895,0.5709,1.1252,23.88,44.58,11.87,177.84,77.89,117.92,170504,2016-04-11 18:03:49:576
-3.3662,-9.4766,-2.9862,-1.9873,-9.5977,0.3255,-0.4493,0.6857,2.7498,1.0163,0.7899,-0.0387,29.2,41.99,6.28,178.51,78.54,102.73,170604,2016-04-11 18:03:49:676
1.3902,-10.3474,-2.2715,-3.0828,-9.2055,1.3873,3.0573,-1.1025,-1.1221,1.5468,0.3515,0.6639,28.01,42.67,4.39,231.63,73.93,67.36,170703,2016-04-11 18:03:49:775
0.2177,-12.2332,-0.7639,-3.2544,-9.1241,1.5268,5.4976,-1.2663,-3.4507,0.4961,0.3684,0.4686,33,39.24,1,228.71,68.5,64.87,170803,2016-04-11 18:03:49:875
-4.5439,-11.5811,1.6779,-2.322,-9.527,0.12,-2.3927,-2.7455,0.0373,-1.9069,-0.5904,-1.0083,33.14,39.27,1.06,186.78,76.29,87.04,170903,2016-04-11 18:03:49:975
-5.6721,-12.6197,1.2865,-1.4919,-9.5922,-1.3904,-4.5634,-4.0965,2.2332,-2.4517,0.2175,-1.3962,29.62,41.38,5.69,201.56,76.29,87.04,171003,2016-04-11 18:03:50:075
-2.4155,-5.062,2.0496,0.5327,-9.3366,-2.9521,-1.5415,0.887,2.5528,-1.1507,-0.9877,-1.6405,21.29,42.72,17.11,116.38,76.5,172.06,171103,2016-04-11 18:03:50:175
-4.8607,-2.0737,-0.2173,0.5333,-9.1398,-3.5143,-3.3229,4.8534,5.4138,-0.7164,-2.2173,-0.8402,17.88,43.48,20.42,96.82,72.19,-169.77,171203,2016-04-11 18:03:50:275
4.7328,-15.9939,-11.681,-0.1306,-9.3431,-2.9764,0.3245,-1.683,-5.5481,0.314,-0.8162,0.0673,20.93,44.13,15.7,97.69,72.31,177.49,171303,2016-04-11 18:03:50:375
-10.8992,-5.8088,-0.718,0.078,-9.3094,-3.0822,2.791,-3.7037,-4.9961,-0.0311,0.0756,-0.3697,21.88,44.26,14.05,92.35,72.31,177.49,171403,2016-04-11 18:03:50:475
-3.6469,-12.9043,2.009,-1.0694,-9.5272,-2.0636,-5.2533,6.2719,6.1297,1.5781,1.193,1.9681,22.4,44.63,14.75,133.79,76.29,152.61,171504,2016-04-11 18:03:50:576
-1.4775,-8.5278,-2.5643,-1.8914,-9.5659,-1.0423,-0.9824,-3.6672,2.6809,1.5378,0.0583,0.8965,26.29,42.32,12.49,173.75,77.28,118.86,171603,2016-04-11 18:03:50:675
-3.1193,-8.3253,-0.2624,-1.9391,-9.6033,0.4319,-1.2562,1.0022,1.7877,1.5952,1.1884,0.149,28.5,43.05,5.04,212.85,78.31,77.44,171703,2016-04-11 18:03:50:775
1.4749,-11.0822,-1.4459,-2.3722,-9.4595,1.0301,-0.1426,-0.1767,-3.6684,0.9469,0.5053,0.8607,28.61,42.28,1.72,224.1,74.71,66.53,171803,2016-04-11 18:03:50:875
0.9463,-12.4364,-2.3496,-2.9918,-9.2116,1.5381,5.6962,-1.7019,-2.6134,0.1011,0.2307,0.0514,33.03,38.84,-1.3,220.62,71.14,63.94,171904,2016-04-11 18:03:50:976
-2.7627,-15.4634,1.4454,-2.0413,-9.5692,-0.6581,3.3753,-1.9191,-2.2365,-3.0679,-0.3542,-1.686,32.41,40.44,3.95,220.73,72.7,71.9,172003,2016-04-11 18:03:51:075
-5.4083,-11.7211,1.8861,-1.3996,-9.4342,-2.282,-4.3677,-7.2644,4.3749,-3.0679,-0.3542,-1.686,32.41,40.44,3.95,220.73,72.7,71.9,172103,2016-04-11 18:03:51:175
-1.8,-8.798,0.2975,-0.0584,-8.8315,-4.2628,-0.6887,-0.5813,3.893,-1.7167,-0.5957,-1.9384,24.9,42.29,18.16,105.39,68.73,168.71,172203,2016-04-11 18:03:51:275
-4.6891,-1.612,-0.8051,-0.2174,-8.6521,-4.6114,-2.0726,2.5312,5.3804,-0.9625,-2.1232,-1.3218,20.36,43.96,20.28,87.47,64.23,179.22,172303,2016-04-11 18:03:51:375
-0.2966,-12.0261,-7.676,-1.0004,-8.972,-3.8305,-0.9188,1.7919,-0.7541,1.0024,-0.939,0.1469,19.81,43.46,20.85,96.92,63.41,171.33,172405,2016-04-11 18:03:51:477
1.9715,-7.0387,-2.7447,-1.0814,-9.091,-3.5149,4.3983,-1.9207,-2.4374,0.5535,-0.5397,0.2227,21.08,44.29,15.39,99.12,67.98,162.9,172503,2016-04-11 18:03:51:575
-4.2339,-12.9287,-3.133,-1.5843,-9.4211,-2.2142,-3.519,-3.4714,-0.7777,1.5207,1.2441,0.8368,23.84,45.43,11.47,106.52,71.44,154.13,172603,2016-04-11 18:03:51:675
-2.9102,-11.1337,-0.114,-1.7363,-9.4943,-1.736,-1.0434,3.6384,3.9007,0.9136,2.0911,0.4296,24.72,45.16,8.26,133.3,75.5,134.99,172703,2016-04-11 18:03:51:775
0.8784,-8.8961,0.1388,-2.3774,-9.4891,-0.69,3.5796,-0.1287,1.5395,0.722,-0.0349,0.4943,27.91,42.9,4.37,146.2,75.03,118.27,172803,2016-04-11 18:03:51:875
-3.5481,-9.4715,-0.4303,-2.1606,-9.5655,0.0515,1.7093,0.0794,1.5478,1.3776,1.1247,-0.2957,28.61,41.94,-0.09,182.08,77.27,88.63,172903,2016-04-11 18:03:51:975
1.6355,-11.7254,-0.84,-2.6857,-9.3623,1.1425,0.5494,-1.119,-0.5143,0.9405,0.5577,0.5867,28.97,41.41,-3.86,207.45,72.69,66.96,173003,2016-04-11 18:03:52:075
2.4167,-12.1019,0.3837,-2.9188,-9.2579,1.3934,4.6639,-1.8334,-2.4947,0.6321,0.4274,0.4506,31.7,40.3,-5.36,203.67,72.69,66.96,173103,2016-04-11 18:03:52:175
-0.8214,-11.1902,-2.0735,-2.5495,-9.4609,0.4031,5.5004,-2.5034,-1.1068,-1.5964,-0.4453,-0.5822,34.07,39.81,-4.21,208.55,70.7,66.88,173204,2016-04-11 18:03:52:276
-5.099,-11.9871,0.1203,-1.82,-9.5849,-0.994,-2.1258,-3.774,2.4088,-2.387,-0.361,-1.2972,31.61,42.05,-0.13,194.42,74.74,81.02,173304,2016-04-11 18:03:52:376
-0.82,-8.7617,-2.476,-0.1696,-9.1809,-3.4427,-0.7026,-0.7684,4.213,-1.7016,0.5276,-1.4347,25.17,42.96,12.77,120.09,74.42,155.07,173404,2016-04-11 18:03:52:476
-3.7234,-2.1405,0.544,0.4265,-8.8545,-4.1937,-2.1973,2.7463,3.8428,-1.2437,-1.1339,-1.2895,20.23,45.52,17.39,91.94,69.42,177.18,173503,2016-04-11 18:03:52:575
1.1694,-10.7594,-8.3631,-0.5392,-8.8164,-4.2605,-2.4954,5.9787,2.6378,0.7063,-1.1819,0.6758,19.13,43.46,18.35,87.82,64.03,172.79,173603,2016-04-11 18:03:52:675
-5.3147,-13.4822,-1.6017,-0.736,-9.0061,-3.8103,2.071,-3.0734,-1.7074,0.4242,0.1048,-0.1396,23.5,44.83,13.75,84.71,65.52,167.92,173704,2016-04-11 18:03:52:776
-3.129,-5.3291,5.9993,-1.0569,-9.1357,-3.4048,-7.137,-3.4672,0.5405,0.8317,0.7913,1.037,22.53,43.37,12.65,86.34,66.69,169.07,173803,2016-04-11 18:03:52:875
3.398,-8.7365,-2.8128,-2.4888,-9.3605,-1.5355,0.1452,-3.5935,2.969,1.9084,-0.6198,0.7187,28.22,42.8,8.16,110.73,70.76,145.52,173904,2016-04-11 18:03:52:976
-3.7549,-8.126,2.8667,-2.4739,-9.4649,-0.682,5.312,-0.0749,-1.0248,0.9822,0.7457,-0.3275,28.96,41.87,2.68,163.97,74.83,105.41,174004,2016-04-11 18:03:53:076
-1.7197,-9.787,0.8843,-2.7293,-9.3901,0.7398,0.3302,-0.3274,-1.5979,1.7967,0.0923,0.1312,30,42.15,1.66,189.27,75.7,88.01,174103,2016-04-11 18:03:53:175
2.9563,-10.821,-1.639,-3.1971,-9.1943,1.1891,2.4837,-1.7965,-1.3639,0.7426,1.0336,0.7842,29.18,41.95,-1.19,219.31,69.65,69.6,174203,2016-04-11 18:03:53:275
1.1479,-11.9195,-3.1647,-3.1714,-9.1814,1.3468,4.2319,-2.6506,-2.0016,0.1049,0.1893,0.0167,32.97,37.49,-4.16,208.61,69.43,66.99,174303,2016-04-11 18:03:53:375
-4.8433,-12.7293,1.9636,-2.6042,-9.4524,0.2009,2.8394,-2.447,-3.6575,-1.0285,-0.5152,-0.4277,33.19,36.88,-3.52,176.26,74.55,85.59,174403,2016-04-11 18:03:53:475
0.9765,-10.2006,-3.0153,-0.7596,-9.5292,-2.188,-6.1013,-5.0273,3.1936,-1.9064,0.4741,-1.5596,27.84,42.11,5.13,98.24,76.34,160.86,174503,2016-04-11 18:03:53:575
-2.5338,-4.2585,0.7774,0.1829,-9.3743,-2.874,-0.6639,-1.4745,1.7504,-0.8934,1.148,-1.36,24.49,43.7,11.51,83.24,72.92,-176.36,174603,2016-04-11 18:03:53:675
-4.2608,-3.1047,-1.9782,-0.0744,-9.1458,-3.5381,-2.7635,5.6007,4.8082,-0.2572,-1.951,-0.2246,16.87,43.97,18.51,89.24,68.32,-174.32,174703,2016-04-11 18:03:53:775
-0.0978,-8.5774,-0.6096,-0.8347,-9.3785,-2.7419,3.5266,-2.809,-2.0908,0.5617,-0.7083,0.3661,20.88,44.66,12.12,102.49,73.01,163.07,174803,2016-04-11 18:03:53:875
-6.0097,-8.0717,-0.2896,-0.8769,-9.3916,-2.6831,-8.7171,-4.6854,0.2834,0.0368,0.4799,-0.1087,21.61,44.7,10.63,99.66,73.01,163.07,174903,2016-04-11 18:03:53:975
0.9478,-10.5939,1.2557,-2.2169,-9.425,-1.5574,-0.1488,-1.4373,3.2887,1.1264,0.8259,1.4767,22.99,44.39,10.27,122.08,74.81,146.95,175003,2016-04-11 18:03:54:075
-0.6784,-7.6682,-1.0597,-2.6469,-9.4315,-0.4594,4.4682,-0.4271,2.2628,1.5352,-0.4228,0.8346,26.9,42.49,8.27,191.97,74.1,99.85,175103,2016-04-11 18:03:54:175
-1.7552,-9.7101,-0.7021,-2.9181,-9.2984,1.093,-1.1557,-0.4282,-1.495,1.165,1.589,0.2375,28.66,40.78,0.11,205.78,73.81,75.07,175203,2016-04-11 18:03:54:275
1.3273,-10.8069,-1.1362,-3.542,-9.0282,1.4547,1.4965,-1.1412,-2.3562,0.9571,0.6139,0.9974,29.49,38.8,-0.43,229.32,67.02,67.67,175304,2016-04-11 18:03:54:376
1.2583,-11.9978,-1.1926,-3.92,-8.8395,1.6332,7.7765,-0.7532,-1.8535,-0.2142,-0.3376,0.1035,34.83,36.59,-1.88,221.42,63.99,66.98,175403,2016-04-11 18:03:54:475
-4.5332,-11.9195,0.8452,-3.3917,-9.1677,0.788,3.9828,-3.0067,-2.4961,-1.7407,-0.0101,-0.9635,34.7,37.14,-2.8,194.47,69.2,76.92,175503,2016-04-11 18:03:54:575
-1.5885,-11.3516,2.413,-1.5235,-9.5176,-1.8068,-3.3713,-2.3564,3.5532,-1.5642,1.7344,-1.293,27.02,41.68,8.78,185.23,74.95,105.39,175603,2016-04-11 18:03:54:675
-2.6944,-5.4807,1.307,-0.459,-9.4108,-2.7198,0.9738,-0.539,0.2033,-1.5134,-0.2226,-1.642,22.42,43.4,14.49,103.55,73.66,170.42,175703,2016-04-11 18:03:54:775
-4.5563,-2.7588,-1.2417,-0.2951,-9.1668,-3.4717,-3.1145,6.0939,4.9296,0.2967,-1.5448,0.0557,18.07,43.67,18.16,98.86,69.19,175.14,175803,2016-04-11 18:03:54:875
6.7026,-18.8401,-12.6333,-0.8731,-9.2732,-3.0685,-1.6426,3.6383,-1.3379,0.7027,-1.2215,0.6225,18.92,44.39,17.44,95.57,69.19,175.14,175903,2016-04-11 18:03:54:975
-8.5909,-3.3563,1.949,-1.0306,-9.3649,-2.7216,-2.5709,-4.3592,1.4984,0.4249,0.5203,0.6235,21.35,45.76,12.08,99.69,71.92,161.88,176003,2016-04-11 18:03:55:075
-1.5779,-12.8098,-0.0359,-2.9694,-9.2666,-1.2182,-0.5266,-2.4986,4.886,0.406,-0.7069,1.1523,25.83,41.85,9.7,136.88,73.38,135.44,176103,2016-04-11 18:03:55:175
-1.4208,-7.5294,1.2462,-3.1101,-9.2664,-0.7947,5.4395,-2.6568,0.2144,0.406,-0.7069,1.1523,25.83,41.85,9.7,136.88,73.38,135.44,176203,2016-04-11 18:03:55:275
-4.3116,-9.3115,-4.0348,-2.7663,-9.4081,0.0747,-0.5597,0.1841,3.1404,1.2225,1.8286,-0.5461,29.09,40,2.39,173.19,73.66,97.85,176303,2016-04-11 18:03:55:375
1.8831,-11.2691,-2.3956,-3.2592,-9.2285,0.6195,2.205,-1.31,0.4083,0.8271,0.658,0.6716,27.65,41.2,0.4,203.52,70.23,79.24,176403,2016-04-11 18:03:55:475
0.1163,-12.0386,-0.9584,-3.8383,-8.9787,0.906,5.1704,-2.4057,-1.0291,0.0547,0.0974,0.5823,31.83,36.94,-2.7,197.26,66.29,76.72,176503,2016-04-11 18:03:55:575
-3.183,-11.4776,0.4032,-3.4856,-9.1638,0.2157,4.5533,-2.2352,-2.4542,-0.5233,-0.0555,-0.0176,32.71,36.36,-2.58,196.68,66.29,76.72,176603,2016-04-11 18:03:55:675
-7.2983,-13.0783,1.521,-1.6034,-9.3226,-2.5862,-5.6706,-5.7654,3.7629,-2.4587,0.1853,-1.666,29.86,39.86,2.06,99.82,71.92,148.2,176703,2016-04-11 18:03:55:775
-3.0395,-4.7735,0.5463,-0.4084,-9.1265,-3.5652,-2.5883,-1.8779,3.5486,-1.8291,1.5269,-1.4461,25.47,41.95,10.78,83.83,68.54,173.46,176804,2016-04-11 18:03:55:876
-3.3041,-2.6988,0.4351,-0.1247,-8.7672,-4.3921,-3.0323,4.4873,5.4472,-0.5232,-1.8956,-0.624,16.49,43.57,18.52,81.43,63.38,178.37,176903,2016-04-11 18:03:55:975
4.3626,-15.7932,-10.5896,-0.7157,-8.9004,-4.0547,-2.7633,5.984,3.9106,0.4015,-1.441,0.2662,15.62,43.39,19.44,96.65,65.17,169.99,177003,2016-04-11 18:03:56:075
-9.8555,-9.9792,1.9154,-0.7762,-9.0214,-3.766,4.6393,-5.2201,-5.2434,0.2256,-0.1347,-0.1359,20.22,43.84,14.22,86.84,66.91,168.35,177103,2016-04-11 18:03:56:175
-3.5509,-8.6784,2.2272,-1.0253,-9.1479,-3.3817,-4.8152,-3.6579,1.4668,0.707,0.867,0.6104,21.02,43.66,11.79,91.87,68.88,163.13,177203,2016-04-11 18:03:56:275
2.9009,-10.0092,4.5686,-2.341,-9.2079,-2.4298,2.1251,-2.3901,2.4588,0.6319,-0.5316,1.2467,25.09,42.38,12.69,115.41,70.18,152.02,177303,2016-04-11 18:03:56:375
-3.8456,-9.0351,-2.9491,-2.2425,-9.4284,-1.4991,-0.0017,0.4829,3.1667,1.4607,1.598,-0.1178,30.23,39.91,4.47,138.55,74.03,123.76,177403,2016-04-11 18:03:56:475
-1.1394,-10.4974,1.7064,-2.4797,-9.4394,-0.9584,-0.6255,-0.3076,-1.9259,1.0616,1.1042,0.5806,29.89,40.19,1.12,148.99,74.27,111.13,177503,2016-04-11 18:03:56:575
0.6347,-12.4066,-0.6726,-3.1449,-9.2822,-0.3472,6.8994,-1.6891,-1.4484,0.4588,0.3869,0.2478,34.47,36.56,-1.5,158.75,71.84,101.49,177603,2016-04-11 18:03:56:675
-1.1023,-12.5941,-4.2846,-2.8019,-9.372,-0.6971,4.029,-2.5752,-0.0575,-0.9257,-0.1678,-0.5929,33.84,36,-2.29,153.63,72.88,103.97,177703,2016-04-11 18:03:56:775
-7.7131,-13.012,-0.3022,-1.0054,-9.1611,-3.3517,-3.0568,-2.916,4.4336,-2.1626,1.0937,-1.4888,30.71,40.25,4.81,126.74,73.25,133.63,177805,2016-04-11 18:03:56:877
-0.7611,-8.3757,-0.7076,0.2782,-8.9637,-3.968,-7.8954,-5.291,4.1496,-0.7293,0.8747,-2.119,24.2,44.11,14.1,75.13,66.07,-175.99,177903,2016-04-11 18:03:56:975
-4.198,-1.7789,1.1192,0.7104,-8.36,-5.077,-3.897,4.9711,6.8416,-0.3378,-2.3558,-0.3758,18,44.89,20.12,66.95,58.48,-172.03,178004,2016-04-11 18:03:57:076
2.9266,-14.9854,-9.7292,0.0153,-8.6027,-4.7078,-4.2617,5.785,3.9469,1.4913,-1.2302,0.4936,19.45,43.79,18.05,64.75,58.48,-172.03,178104,2016-04-11 18:03:57:176
-14.3515,-14.4406,-3.6041,-0.0243,-8.8895,-4.1408,1.1026,-5.3418,-1.0809,0.3821,0.3336,-0.1832,20.6,45.37,12.84,71.24,65.02,179.66,178204,2016-04-11 18:03:57:276
-4.262,-11.2393,4.5399,-0.1901,-9.0687,-3.7273,-10.8797,-2.6912,2.8156,0.3821,0.3336,-0.1832,20.6,45.37,12.84,71.24,65.02,179.66,178304,2016-04-11 18:03:57:376
0.7193,-9.4882,0.6735,-1.5612,-9.4953,-1.8903,0.6214,-3.739,1.2966,2.0178,0.8683,1.766,23.32,45.09,11.17,136.09,75.52,140.45,178404,2016-04-11 18:03:57:476
-2.7681,-9.6301,6.4613,-1.6712,-9.5558,-1.4368,3.727,0.5819,0.9362,0.6983,-1.4929,0.505,26.64,42.33,7.48,140.58,77.01,130.69,178503,2016-04-11 18:03:57:575
-0.1756,-10.2297,0.6544,-1.9943,-9.6005,0.1516,-2.3749,-0.5528,-4.412,2.0184,0.7754,0.1672,28.46,40.94,1.31,156.93,80.06,109.11,178603,2016-04-11 18:03:57:675
4.6401,-9.5345,0.4258,-2.7505,-9.3784,0.8074,5.2328,-1.178,-0.9573,0.6946,0.0125,0.6861,33,40.42,-0.99,203.85,73,73.64,178703,2016-04-11 18:03:57:775
0.2196,-12.5085,-2.7538,-2.4339,-9.4885,0.4629,3.1102,-1.9942,-2.8419,-0.0389,0.2277,-0.2529,33.52,38.32,-1.53,190.77,75.37,79.23,178803,2016-04-11 18:03:57:875
-8.0709,-16.4298,1.0641,-0.7051,-9.5109,-2.2839,-7.0104,-6.2678,3.1465,-2.5678,0.3132,-1.6463,30.82,41.66,1.04,147.23,79.24,116.25,178903,2016-04-11 18:03:57:975
-0.9421,-8.0438,-0.1277,0.5515,-9.3025,-3.0543,-3.6864,-2.0529,4.4145,-1.6561,1.3076,-1.5437,25.79,43.52,8.8,102.83,75.89,162.84,179003,2016-04-11 18:03:58:075
-2.6604,-3.4268,2.5478,1.2578,-8.6981,-4.3509,-3.3186,4.4956,5.9932,-0.8942,-2.2306,-0.8957,15.95,46.01,19.97,72.04,65.83,-158.51,179103,2016-04-11 18:03:58:175
4.42,-19.2994,-10.7266,0.6784,-8.9201,-4.0177,-4.6946,6.9385,5.1309,0.6134,-1.8179,0.0551,17.05,45.4,20.45,70.08,62.49,-163.88,179203,2016-04-11 18:03:58:275
-3.4083,-15.3705,2.5129,0.5753,-9.0488,-3.7361,1.2344,-8.2375,-4.6025,-0.2064,0.5518,-0.2816,21.04,46.5,13.92,70.07,67.33,-171.25,179303,2016-04-11 18:03:58:375
-2.1343,-16.7362,0.8997,0.5734,-9.2488,-3.2094,-7.0871,2.4452,3.5964,0.776,2.7762,0.8945,19.86,46.21,13.85,75.78,70.58,-169.87,179404,2016-04-11 18:03:58:476
4.9505,-6.8811,-6.1847,-0.9787,-9.4909,-2.266,5.5351,1.0047,-0.5066,0.4651,-0.0825,0.6974,25.48,44.27,9.11,94.98,74.8,168.02,179504,2016-04-11 18:03:58:576
-3.9732,-9.6331,4.0606,-0.7836,-9.6401,-1.6202,-0.8475,0.4123,4.9378,1.0485,0.9666,-0.2622,27.26,43.66,6.21,112.06,79.43,154.19,179604,2016-04-11 18:03:58:676
0.5326,-9.8381,0.5778,-1.387,-9.6897,-0.5965,0.9422,-0.4714,0.6928,0.7162,0.3085,0.944,27.5,44.49,0.1,148.97,81.14,113.27,179704,2016-04-11 18:03:58:776
0.3633,-11.7055,-1.6088,-1.856,-9.6238,-0.3289,3.7482,-0.6804,-0.2654,0.3806,0.1323,0.7696,29.58,42.19,0,150.28,81.14,113.27,179804,2016-04-11 18:03:58:876
-0.1513,-12.4641,-3.0114,-1.719,-9.6248,-0.7607,3.3742,-1.8854,-0.9521,-1.1568,-0.2956,-0.8159,32.61,40.11,-0.25,148.68,78.95,113.87,179904,2016-04-11 18:03:58:976
-5.8959,-12.9338,-0.8758,-0.8819,-9.5827,-1.8882,-0.2443,-2.7074,0.0088,-1.8734,1.0266,-1.2192,26.06,45.18,8.9,114.88,77.73,154.96,180003,2016-04-11 18:03:59:075
-0.4535,-9.7847,-1.4387,1.0384,-8.9575,-3.8543,-5.9884,-3.6561,3.9311,-1.3948,0.4402,-1.8349,21.59,44.33,14.14,88.77,71.88,-179.75,180104,2016-04-11 18:03:59:176
-3.4057,-3.1651,1.123,1.4806,-8.2761,-5.0483,-3.9534,2.7369,5.8711,-0.1042,-1.8292,-0.2174,15.22,45.08,21.02,65.07,60.14,-159.29,180203,2016-04-11 18:03:59:275
2.5278,-11.7113,-8.0487,0.8473,-8.4529,-4.899,-2.9675,3.1158,0.8621,1.0546,-1.2366,0.5634,16.65,44.21,19.04,60.5,57.56,-163.65,180303,2016-04-11 18:03:59:375
-6.7683,-15.8857,0.0519,0.8781,-8.5499,-4.7222,-0.1604,-2.402,1.0512,-0.2298,-0.1583,-0.2905,20.42,44.58,15.01,62.92,60.97,-172.4,180403,2016-04-11 18:03:59:475
-4.8752,-3.7208,5.0042,0.9222,-8.7163,-4.3985,-10.4959,-2.598,3.5895,0.0921,0.6625,-0.3208,19.36,46.7,15.32,58.38,60.67,-169.47,180504,2016-04-11 18:03:59:576
1.9643,-10.3901,0.9473,-0.9466,-9.3858,-2.6796,0.5511,-4.7076,2.2065,2.0584,1.33,2.6529,19.88,45.46,14.22,79.97,69.51,-176.91,180604,2016-04-11 18:03:59:676
-3.2898,-8.9537,8.0404,-1.287,-9.4307,-2.3615,5.0087,0.0586,1.5081,0.0763,-1.3087,0.8537,25.41,43.04,9.14,112.51,74.08,151.41,180703,2016-04-11 18:03:59:775
-2.0814,-10.0737,-1.0701,-1.2158,-9.6875,-0.919,-3.7372,0.3762,1.3562,1.6004,2.0595,-0.0468,29.55,42.55,3.45,115.23,78.93,145.5,180803,2016-04-11 18:03:59:875
5.3029,-9.2764,0.7966,-1.8024,-9.6228,-0.5682,-0.2171,-0.797,-0.5503,0.5341,0.6244,0.908,28.99,43.1,1.81,137.53,81.06,127.08,180903,2016-04-11 18:03:59:975
1.1237,-10.3027,-2.409,-2.0728,-9.579,-0.341,5.7484,-0.4878,0.1518,-0.0645,-0.2068,0.116,33.51,39.86,-0.96,169.13,77.16,96.09,181003,2016-04-11 18:04:00:075
-6.8866,-15.8151,0.8418,-1.4805,-9.6111,-1.2673,0.2291,-2.8742,0.5072,-1.2738,-0.321,-0.766,33.44,39.32,-0.02,128.09,78.54,130.56,181103,2016-04-11 18:04:00:175
-0.4591,-10.2963,-2.4882,0.4291,-9.231,-3.2826,-6.8956,-3.0199,4.7792,-1.5165,0.8832,-1.4823,27.33,42.99,6.9,67.83,70.27,-172.55,181203,2016-04-11 18:04:00:275
-2.4865,-4.8793,1.2137,1.499,-8.8478,-3.9546,-2.0488,-0.9466,1.5014,-1.2666,1.0617,-1.4693,23.65,44.65,12.16,74.73,70.27,-172.55,181304,2016-04-11 18:04:00:376
-2.8315,-3.711,-2.2861,1.0003,-8.3252,-5.0854,-4.0324,4.6164,5.7835,-0.2983,-1.4305,0.0766,17.87,44.2,19.01,62.19,58.78,-161.94,181404,2016-04-11 18:04:00:476
2.6734,-11.8187,-7.696,0.5361,-8.6426,-4.6031,3.9409,-6.1324,-3.2624,0.3928,-0.5264,-0.2197,21.2,44.37,16.46,66.16,60.28,-173.73,181504,2016-04-11 18:04:00:576
-9.1102,-17.894,-3.0989,0.6784,-8.6309,-4.6063,0.9216,-2.1778,-0.9318,-0.0273,0.0427,-0.2175,21.33,44.68,15.67,66.33,61.65,-171.62,181603,2016-04-11 18:04:00:675
-2.1847,-13.0914,0.2233,-0.2973,-9.1802,-3.4361,-5.242,5.6601,7.6851,1.4992,1.2222,1.9342,21.07,45.4,15.39,89.58,69.41,175.06,181703,2016-04-11 18:04:00:775
2.6928,-9.4863,2.554,-1.3052,-9.3555,-2.6348,-1.2932,-3.9923,3.7193,0.8904,-0.879,1.2693,26.96,43.02,12.59,88.18,69.41,175.06,181803,2016-04-11 18:04:00:875
-4.0466,-9.6695,-1.2873,-1.3982,-9.605,-1.3996,-1.2808,0.3851,4.6631,1.8198,1.3534,-0.1088,31.13,40.81,6.4,134.44,78.36,135.03,181903,2016-04-11 18:04:00:975
-1.3997,-10.5802,1.075,-1.5877,-9.6476,-0.7577,-1.5031,-0.6079,-2.9729,0.8005,1.0933,0.6245,31.05,40.59,3.92,129.88,78.36,135.03,182003,2016-04-11 18:04:01:075
2.1704,-10.146,-0.6309,-2.2609,-9.5416,-0.1293,5.6595,-0.6666,-0.8411,0.2617,0.0576,0.1676,33.96,38.28,3.19,182.47,76.65,93.27,182103,2016-04-11 18:04:01:175
0.391,-12.7617,-4.1909,-2.0679,-9.5824,-0.2671,3.524,-1.8377,-0.3572,-0.556,-0.2945,-0.406,35.48,38.51,2.54,182.27,76.65,93.27,182203,2016-04-11 18:04:01:275
-7.2751,-13.8136,0.0132,-0.6004,-9.3703,-2.8297,-2.2271,-3.2733,3.2723,-2.1296,0.8332,-1.3263,30.31,39.53,7.62,142.52,78.24,132.56,182303,2016-04-11 18:04:01:375
-0.7472,-10.7302,-2.4507,0.4109,-9.1196,-3.5826,-7.7325,-5.2085,4.4957,-0.8333,1.2239,-1.5973,27.31,40.44,15.26,82.59,68.42,-173.46,182403,2016-04-11 18:04:01:475
-2.3279,-3.5853,1.4114,1.1927,-8.4025,-4.9139,-3.2032,2.5599,4.9548,-1.4582,-1.5682,-1.5361,21.91,44.35,19.57,68.12,58.96,-166.36,182504,2016-04-11 18:04:01:576
0.69,-10.314,-7.741,0.1285,-8.6979,-4.5278,2.7806,-5.0361,-4.5729,0.8229,-1.2924,0.4787,18.9,43.47,21.88,78.01,59.85,-173.59,182603,2016-04-11 18:04:01:675
-5.6999,-9.3807,-1.3588,0.0473,-8.8162,-4.2944,2.3102,-3.3833,-2.623,0.5965,-0.7652,0.0352,23.09,44.03,16.52,79.7,64.03,-179.37,182703,2016-04-11 18:04:01:775
-1.754,-7.8366,4.9197,-0.7018,-9.2187,-3.2701,-2.4678,-1.2403,6.4568,0.8598,0.757,1.0234,21.6,43.77,11.03,72.96,65.95,175.94,182804,2016-04-11 18:04:01:876
2.0563,-11.0901,1.2033,-1.2261,-9.3877,-2.557,-1.9477,0.6267,4.8837,1.447,1.682,1.2011,24.24,43.24,10.84,112.5,73.19,154.38,182903,2016-04-11 18:04:01:975
-0.2045,-8.1391,-0.5823,-1.6271,-9.6141,-1.0449,2.2402,0.8814,1.779,1.3054,-0.5615,0.1052,30.72,40.93,7.86,155.24,78.63,122.71,183003,2016-04-11 18:04:02:075
-1.4853,-9.6415,-0.8346,-1.6162,-9.663,-0.431,0.2096,0.3616,1.5642,1.0514,1.8415,-0.0412,30.74,40.21,3.64,145.95,78.63,122.71,183103,2016-04-11 18:04:02:175
3.3731,-10.6061,-2.6177,-2.6442,-9.4302,0.5001,2.4331,-1.1589,0.5714,0.6997,0.4513,0.9942,30.11,38.49,2.85,206.12,74.07,79.29,183203,2016-04-11 18:04:02:275
3.3343,-11.2243,-1.6943,-2.7649,-9.3788,0.7509,6.2876,-1.227,-3.0153,0.5821,0.0907,0.4285,33.65,37.07,0.85,205.92,73.01,74.81,183303,2016-04-11 18:04:02:375
-5.085,-13.6065,1.0345,-1.6275,-9.6258,-0.9301,-2.7474,-3.7937,1.0265,-2.1825,-0.7853,-1.3392,33.63,37.19,1.34,144.45,78.98,119.75,183403,2016-04-11 18:04:02:475
-4.4542,-11.6043,1.6621,-0.7649,-9.4769,-2.4028,-5.7716,-4.7016,3.929,-2.4461,0.5242,-1.3826,30.78,40.21,4.6,96.93,75.1,162.34,183503,2016-04-11 18:04:02:575
-2.0343,-4.9156,2.301,1.0311,-8.8237,-4.1534,-1.8794,1.0297,4.7617,-1.2594,-1.4816,-1.6815,21.22,42.79,17.67,89.34,69.78,-173.64,183603,2016-04-11 18:04:02:675
-2.9028,-6.2822,-6.1471,0.7307,-8.6429,-4.5757,-3.5407,4.6158,6.7681,-0.3974,-2.3223,-0.6692,18.73,43.93,19.48,73.71,64.13,-166.06,183703,2016-04-11 18:04:02:775
3.6009,-12.4648,-8.449,-0.1973,-8.948,-4.008,0.8321,-2.0586,-3.8702,0.4106,-0.7803,0.2716,19.58,43.81,14.28,70.23,64.05,-177.75,183803,2016-04-11 18:04:02:875
-8.4823,-13.3873,0.1219,-0.1568,-9.0253,-3.8327,4.0596,-3.4421,-3.8289,0.446,-0.2727,-0.2425,21.06,44.72,11.46,69.98,65.85,177.18,183904,2016-04-11 18:04:02:976
-2.4543,-10.6831,0.9589,-0.9486,-9.2507,-3.1138,-7.5076,0.6084,1.7082,1.3645,1.4571,1.6652,21.48,44.55,11.59,78.59,68.43,176.03,184003,2016-04-11 18:04:03:075
2.0563,-9.2302,2.9333,-2.0888,-9.3857,-1.9277,3.628,-2.4797,2.5027,1.4152,1.0505,-0.1012,28.4,41.39,5.99,111.97,71.32,142.57,184104,2016-04-11 18:04:03:176
-5.0852,-9.6083,-4.4414,-1.8628,-9.5747,-1.0125,-1.5095,0.3113,2.5542,1.8086,1.8488,-0.1393,28.48,39.94,2.42,144.54,77.51,118.53,184204,2016-04-11 18:04:03:276
2.0858,-10.9026,-3.069,-2.6436,-9.4421,-0.1685,2.8085,-1.5335,1.5451,1.1461,0.0247,1.0596,30.43,40.14,0.31,173.96,74.33,93.65,184304,2016-04-11 18:04:03:376
0.8628,-12.7205,-1.0637,-2.9154,-9.3615,0.1812,6.4957,-1.245,-2.3398,0.1214,0.0503,0.2065,32.51,36.35,-1.77,180.14,72.67,86.44,184405,2016-04-11 18:04:03:477
-3.1658,-12.2451,1.6281,-2.2341,-9.5041,-0.922,2.5941,-2.5939,-1.9772,-0.6935,-0.5117,-0.3617,33.09,36.7,-1.37,178.04,73.56,89.52,184504,2016-04-11 18:04:03:576
-6.7452,-13.7174,-0.1006,-1.4245,-9.4516,-2.1927,-1.8481,-2.864,3.8136,-2.4606,-0.516,-1.3082,30,39.12,0.69,104.05,74.54,146.99,184603,2016-04-11 18:04:03:675
0.8439,-10.6242,-3.1651,0.4956,-8.948,-3.9822,-1.8066,-1.4652,3.9809,-1.3257,1.9194,-1.1512,23.65,42.52,10.01,65.82,65.85,-172.91,184703,2016-04-11 18:04:03:775
-3.3152,-3.7141,1.7233,0.7119,-8.5292,-4.787,-1.6232,0.688,4.362,-1.6518,-1.3784,-1.7544,19.32,44.52,15.84,62.79,60.43,-171.54,184803,2016-04-11 18:04:03:875
-2.0854,-5.5685,-4.2968,-0.416,-8.8429,-4.219,-3.7627,5.988,4.4358,0.8127,-1.2506,0.3815,17.36,44.57,19.13,86.58,64.39,174.37,184904,2016-04-11 18:04:03:976
-3.1008,-11.2519,0.7219,-0.5834,-8.9899,-3.8744,5.723,-7.0422,-5.36,1.0709,-0.7628,0.4922,19.15,44.75,14.58,76.11,64.39,174.37,185003,2016-04-11 18:04:04:075
-4.0096,-11.5854,2.8878,-1.105,-9.2314,-3.1194,-4.691,2.9446,5.7675,0.8038,1.3743,0.8599,19.65,44.83,13.57,85.75,67.44,169.83,185103,2016-04-11 18:04:04:175
2.8718,-9.6484,2.8807,-1.8843,-9.2624,-2.613,-0.6314,-3.1424,2.8068,1.093,0.7081,1.459,21.71,45.3,12.86,101.26,70.28,160.49,185203,2016-04-11 18:04:04:275
-2.0272,-8.4288,1.3858,-2.201,-9.5023,-1.0157,2.72,1.1284,-0.2212,1.7418,0.7787,0.0711,27.41,42.11,7.46,163,75.69,114.77,185304,2016-04-11 18:04:04:376
-0.8027,-10.3576,-0.2314,-2.7464,-9.4078,0.347,0.5844,-0.7869,-3.2444,1.1628,0.2715,0.7923,28.11,42.31,2.87,204.2,73.6,82.8,185403,2016-04-11 18:04:04:475
3.3936,-10.4984,-1.644,-3.1869,-9.2568,0.5708,3.7853,-2.0188,-0.5959,0.4497,0.1342,0.8435,29.65,41.32,1.63,207.39,70.72,79.85,185503,2016-04-11 18:04:04:575
1.9278,-11.0837,-2.9491,-2.9441,-9.3539,0.0781,3.3744,-2.843,-1.1322,-0.893,0.0811,-0.5076,32.06,38.39,-1.02,196.25,70.04,79.43,185603,2016-04-11 18:04:04:675
-3.2867,-12.6154,0.5565,-2.0687,-9.5039,-1.2514,2.3288,-2.1817,-2.24,-2.1926,-0.4197,-1.4204,30.26,40.83,2.81,193.17,72.52,88.48,185703,2016-04-11 18:04:04:775
2.9629,-10.321,-2.0014,-0.0781,-9.1741,-3.4641,0.3702,-1.9296,2.3959,-1.476,0.6768,-1.633,23.77,43.95,13.84,120.56,73.23,154.64,185803,2016-04-11 18:04:04:875
-2.203,-5.157,0.3034,0.5676,-8.8743,-4.1346,-2.6526,2.4847,4.1252,-1.0869,-1.3912,-1.494,19.29,45.23,18.01,94.11,69.31,178.71,185903,2016-04-11 18:04:04:975
-2.1578,-6.547,-5.3242,-0.1566,-8.9497,-4.0062,-3.9703,5.5453,2.7076,0.9744,-1.0579,0.435,16.35,44.21,18.48,73.72,63.14,-175.09,186003,2016-04-11 18:04:05:075
5.1936,-14.1104,-6.6045,-0.4185,-9.0679,-3.7105,3.896,-4.5159,-6.3003,0.2179,-0.9546,-0.0401,19.91,44.16,14.94,79.5,65.87,177.76,186103,2016-04-11 18:04:05:175
-6.3228,-2.328,4.9526,-0.4302,-9.1954,-3.3809,-9.376,-2.2762,2.0293,0.6813,1.5211,1.1508,19.33,46.67,12.63,75.68,67.9,176.72,186204,2016-04-11 18:04:05:276
3.3039,-10.4301,2.4841,-1.4329,-9.3234,-2.6816,-4.1803,4.5154,7.8072,1.5082,1.0882,2.2854,22.48,45,12.83,117.14,71.94,151.88,186303,2016-04-11 18:04:05:375
-0.3686,-8.1731,2.718,-2.4118,-9.4027,-1.394,5.881,-0.1817,2.178,0.7289,0.1786,-0.18,28.42,42.07,6.03,130.19,71.96,129.55,186403,2016-04-11 18:04:05:475
-4.4077,-9.5934,-5.6759,-2.2685,-9.5266,-0.5185,3.3668,1.4116,0.6972,2.2171,0.7325,-0.0219,27.99,44.08,3.76,140.21,73.5,120.03,186516,2016-04-11 18:04:05:588
1.7613,-11.2072,-1.3722,-3.0799,-9.295,0.5367,4.1363,-1.9804,-0.9664,0.4747,0.5882,0.98,29.49,42.35,0.17,159.73,76.27,102.88,186603,2016-04-11 18:04:05:675
2.6167,-10.2178,-0.6176,-2.871,-9.3469,0.7499,4.6701,-1.8767,-1.6476,0.2734,0.2824,-0.0549,33.46,39.39,-1.42,201.34,72.39,75.36,186704,2016-04-11 18:04:05:776
-3.4235,-11.0575,0.2993,-2.1211,-9.5711,-0.2562,-0.245,-2.2986,-3.0303,-0.9576,-0.7159,-0.9837,33.65,38.91,-2.23,165.94,77.42,96.89,186803,2016-04-11 18:04:05:875
-0.694,-10.9955,0.8369,-0.0747,-9.4889,-2.4752,-5.2421,-3.8011,2.2724,-1.8218,1.3445,-1.4848,25.63,44.59,7.69,125.5,77.96,144.43,186903,2016-04-11 18:04:05:975
-2.217,-4.7341,0.4744,0.8308,-9.237,-3.1872,-1.4205,-0.4186,1.0562,-0.9337,1.4164,-1.5024,20.03,45.97,13.61,97.3,75.37,178.27,187004,2016-04-11 18:04:06:076
-3.2107,-3.3761,-1.8457,0.2697,-9.1005,-3.6441,-2.9325,5.8354,4.827,0.0299,-1.7281,-0.0102,16.76,46.85,20.01,78.55,66.22,-168.28,187103,2016-04-11 18:04:06:175
5.2098,-16.0991,-10.8935,-0.0891,-9.2916,-3.1351,-2.3406,4.404,-0.0579,1.0101,-0.86,0.4638,17.97,46.21,18.8,102.18,71.35,178.37,187203,2016-04-11 18:04:06:275
-5.6246,-6.3938,1.0198,-0.0494,-9.4213,-2.7217,-8.7346,-0.8314,2.6734,0.2766,0.3032,-0.0329,20.49,46.08,12.72,83.78,72.42,-177.83,187304,2016-04-11 18:04:06:376
-1.7801,-11.3673,-1.3569,-0.857,-9.5113,-2.2297,-2.8888,1.2351,4.8677,0.731,1.6278,1.4537,19.67,46.08,12.62,90.19,73.88,178.96,187403,2016-04-11 18:04:06:475
0.1912,-8.111,-5.7617,-2.1077,-9.5334,-0.9181,4.7424,0.2093,4.8898,1.1288,-0.5161,0.5532,27.16,43.05,10.09,138.89,74.46,134.87,187503,2016-04-11 18:04:06:575
-3.5265,-9.9686,-3.0644,-2.0716,-9.5838,0.1702,0.5584,1.1069,-2.3236,2.1846,1.537,-0.0976,29.28,42.59,6.56,206.72,77.76,85.3,187603,2016-04-11 18:04:06:675
-1.419,-10.5775,1.4376,-2.8599,-9.313,1.122,1.2964,-0.8892,-1.4076,0.8931,0.1459,0.9093,29.82,42.98,0.92,207.64,75.75,74.47,187703,2016-04-11 18:04:06:775
0.7347,-11.7246,-0.4272,-3.1946,-9.1663,1.3944,4.605,-2.1941,-2.4902,0.4475,-0.0297,0.6494,31.77,40.65,-0.87,214.26,71.74,68.58,187803,2016-04-11 18:04:06:875
-0.3034,-12.5204,-4.1586,-2.5967,-9.4539,0.2269,3.52,-2.3419,-2.4024,-1.8518,0.0141,-0.9244,31.77,39.61,-2.12,213.37,69.96,68.53,187903,2016-04-11 18:04:06:975
-7.2041,-15.0236,0.4858,-1.6579,-9.5734,-1.3313,-0.3015,-2.3008,-0.9029,-2.4087,0.0439,-1.5408,30.36,42.49,1.07,128.54,77.48,128.77,188003,2016-04-11 18:04:07:075
-0.8383,-9.4604,-2.1369,0.5316,-9.2148,-3.313,-0.2621,0.0333,1.347,-1.6424,-0.1686,-1.6572,20.15,45.3,15.07,78.61,69.99,-170.88,188103,2016-04-11 18:04:07:175
-2.7527,-2.22,1.0294,0.1774,-8.8464,-4.2285,-3.1914,6.2711,5.0516,0.2429,-1.7282,0.2611,14.75,45.03,19.09,79.72,64.43,-177.6,188203,2016-04-11 18:04:07:275
2.711,-13.744,-9.0369,-0.3861,-9.015,-3.8408,-0.6137,1.9977,-1.4401,0.8261,-0.7908,0.4753,18.63,46.29,17.3,75.08,64.43,-177.6,188303,2016-04-11 18:04:07:375
-10.2034,-10.8782,0.4003,-0.5826,-9.2889,-3.0897,-3.9749,0.5197,2.0756,1.2162,0.9289,0.9309,18.03,45.52,13.58,82.97,68.51,173.49,188404,2016-04-11 18:04:07:476
-3.1785,-6.3957,4.3512,-1.2071,-9.4239,-2.4296,-4.9053,-4.154,0.0735,1.1078,1.2401,1.3059,20.38,45.41,11.05,113.16,73.94,153.58,188503,2016-04-11 18:04:07:575
2.3068,-8.3483,3.4985,-2.0156,-9.4785,-1.5053,2.6429,-2.1575,3.1681,0.7091,-0.9591,-1.0000E-04,25.54,43.54,10.67,156.09,75.14,126.75,188603,2016-04-11 18:04:07:675
-1.7036,-10.0146,-1.7421,-1.9239,-9.5984,-0.5828,2.8739,1.4577,4.0636,0.7091,-0.9591,-1.0000E-04,25.54,43.54,10.67,156.09,75.14,126.75,188703,2016-04-11 18:04:07:775
0.0667,-9.4771,1.4414,-2.5144,-9.4744,0.291,-1.7018,-0.8321,-3.5353,0.6171,1.154,0.3838,27.46,43.39,2.24,189.76,78.27,87.82,188803,2016-04-11 18:04:07:875
3.3913,-9.9123,-2.4997,-2.9436,-9.3339,0.6202,6.3083,-0.98,-1.9676,0.6763,0.322,1.1318,27.88,44.02,3.68,205.51,75.04,83.4,188903,2016-04-11 18:04:07:975
1.7935,-11.242,-2.6174,-2.6599,-9.4336,0.32,4.1295,-1.9237,-2.2396,-0.1395,0.3793,-0.2255,32.2,39.74,-0.29,191.01,74.15,83.14,189003,2016-04-11 18:04:08:075
-5.4726,-15.0242,2.0121,-1.8894,-9.5804,-0.903,0.1656,-2.7483,-1.222,-1.5557,-0.4239,-0.9662,32.32,40.09,0.62,193.86,74.15,83.14,189103,2016-04-11 18:04:08:175
-0.7501,-10.8498,-2.986,0.094,-9.3786,-2.8642,-1.5476,-2.7712,3.8149,-1.414,1.0446,-1.2909,25.44,44.92,11.13,116.15,75.8,155.06,189203,2016-04-11 18:04:08:275
-3.0671,-3.582,1.3902,0.8457,-9.1088,-3.5335,-1.9279,-0.361,1.8759,-0.9657,-0.3856,-1.8709,18.53,45.37,17.51,78.72,68.25,-166.54,189303,2016-04-11 18:04:08:375
-1.8086,-8.5352,-6.5066,0.0911,-9.0667,-3.7359,-3.3744,6.0835,4.556,0.3125,-1.6013,0.136,15.65,45,20.21,80.82,65.45,-170.81,189403,2016-04-11 18:04:08:475
3.4601,-11.3956,-5.4291,0.2878,-9.1785,-3.4412,5.5258,-7.2005,-6.0467,0.1053,-0.0578,-0.5111,19.51,45.6,15.56,82.4,69.38,-175.22,189503,2016-04-11 18:04:08:575
-0.6526,-13.9608,1.7815,-5.0000E-04,-9.2939,-3.1295,-0.8878,1.7015,3.0656,0.4385,0.3689,0.4669,19.05,46.72,13.3,81.98,71.39,179.99,189603,2016-04-11 18:04:08:675
-2.1299,-7.5317,-0.2266,-1.4501,-9.3755,-2.4836,-0.8659,0.3933,2.2371,0.4393,0.7015,1.3567,23.61,43.94,12.25,120.29,72.95,149.72,189704,2016-04-11 18:04:08:776
-3.102,-8.9471,-1.0091,-1.8438,-9.5065,-1.5483,3.0639,-0.6052,5.0231,1.2648,-1.0677,0.4991,26.74,41.84,12.93,157.45,75.79,130.02,189803,2016-04-11 18:04:08:875
-3.1104,-9.4519,-1.4325,-2.0171,-9.5968,-0.0621,-0.8274,0.0376,-1.3879,0.9932,1.3306,0.437,27.76,42.16,2.71,166.7,79.17,105.49,189903,2016-04-11 18:04:08:975
1.7986,-10.469,-2.5706,-2.5339,-9.4632,0.444,1.9961,-0.3179,-0.4011,1.0082,0.4924,0.869,29.33,42.16,2.94,206.38,74.79,80.06,190003,2016-04-11 18:04:09:075
0.1554,-10.8964,-0.462,-3.0402,-9.2929,0.7542,5.965,-0.8393,-1.3865,0.0975,0.1811,0.293,33.67,38.41,-0.09,203.16,71.37,76.07,190103,2016-04-11 18:04:09:175
-3.588,-13.2267,0.845,-2.7342,-9.4151,0.2227,2.9206,-2.2407,-2.8797,-1.3196,-0.5621,-0.6727,33.92,38.51,-0.07,203.51,71.37,76.07,190203,2016-04-11 18:04:09:275
-6.5678,-12.0244,0.8092,-1.0661,-9.5099,-2.1436,-4.7335,-5.3803,3.5156,-1.8374,0.9158,-0.8453,29,42.1,7.59,112.36,75.87,153.56,190304,2016-04-11 18:04:09:376
-2.51,-7.0753,1.4045,-0.084,-9.3749,-2.8765,-5.4442,-2.8877,3.9873,-1.0176,0.4393,-2.0429,24.17,43.5,15.57,133.26,75.87,153.56,190403,2016-04-11 18:04:09:475
-3.7658,-2.0755,1.7017,0.2842,-8.8913,-4.1272,-4.079,5.6263,6.0394,-0.2421,-2.2713,-0.224,18.46,44.69,18.53,83.67,68.16,-169.8,190503,2016-04-11 18:04:09:575
7.3303,-19.0708,-12.4601,-0.3497,-9.0626,-3.7305,-3.6658,5.7245,1.7703,1.3204,-1.1049,0.648,19.82,43.77,15.74,88.87,67.54,174.64,190603,2016-04-11 18:04:09:675
-12.0808,-7.3679,5.2315,-0.0429,-9.279,-3.1731,2.7603,-0.388,1.7588,1.1121,1.1146,-0.2446,22.83,46.9,12.32,82.33,69.22,172.85,190703,2016-04-11 18:04:09:775
-1.9184,-6.8105,3.9138,-0.2233,-9.3592,-2.92,-9.9451,-4.7026,-1.1888,1.1121,1.1146,-0.2446,22.83,46.9,12.32,82.33,69.22,172.85,190804,2016-04-11 18:04:09:876
3.6185,-12.3869,4.4552,-1.2172,-9.5366,-1.9346,-0.1318,0.4735,3.2171,1.6758,0.9831,1.2646,24.37,42.86,11.17,107.06,74.97,162.36,190903,2016-04-11 18:04:09:975
-3.9864,-8.0849,-2.8822,-1.1992,-9.6856,0.9601,-2.5181,0.8835,-1.8925,3.5201,-0.648,-0.289,28.72,42.43,5.58,155.61,82.06,121.22,191004,2016-04-11 18:04:10:076
0.8934,-12.2099,0.4338,-1.7911,-9.5239,1.5023,-2.1499,0.1749,-2.9095,1.5013,1.3113,0.4197,27.82,43.03,-1.56,234.29,76.21,50.01,191103,2016-04-11 18:04:10:175
4.5684,-10.0896,-0.0097,-2.6526,-9.2013,2.1141,5.5549,-1.0687,-2.4846,0.7894,0.4218,0.6851,33.17,37.24,-2.45,231.29,71.86,52.95,191203,2016-04-11 18:04:10:275
-0.6527,-13.2568,-2.9836,-2.3374,-9.3399,1.8639,2.5776,-2.6752,-3.1769,0.0734,0.2417,-0.2413,34.29,36.69,-5.47,225.47,72.25,51.43,191304,2016-04-11 18:04:10:376
-6.2231,-14.7348,0.318,-0.8125,-9.7628,-0.4447,-4.9801,-4.6561,1.0876,-2.1764,-0.5082,-1.4281,31.87,40.89,-0.41,216.77,79.32,61.93,191403,2016-04-11 18:04:10:475
0.1644,-9.6042,-1.6927,-0.0169,-9.6986,-1.4519,-4.8778,-1.7688,1.9713,-1.727,1.0998,-1.2103,28.45,42.77,4.41,85.73,81.49,179.33,191503,2016-04-11 18:04:10:575
-2.5733,-4.7635,1.2551,1.0425,-9.2313,-3.1412,-3.2297,2.6861,4.0194,-1.2249,-1.8312,-1.1243,19.62,45.7,17.54,85.42,75.2,-160.04,191603,2016-04-11 18:04:10:675
2.0186,-9.9493,-7.4652,0.6229,-9.2756,-3.1217,-4.1597,6.3011,3.9876,0.0311,-1.6198,0.0106,18.19,44.96,18.12,78.95,70.28,-161.64,191703,2016-04-11 18:04:10:775
0.349,-9.8219,-5.4212,0.2856,-9.4519,-2.598,3.9288,-6.5497,-7.3906,0.3612,-0.8311,-0.1738,21.81,45.57,12.83,84.79,74.54,-173.73,191803,2016-04-11 18:04:10:875
-3.4328,-5.4266,2.5789,0.2723,-9.5234,-2.3239,-1.5235,0.3789,-0.625,0.4757,0.5717,0.1315,20.71,46.27,11.48,82.95,76.2,-173.32,191903,2016-04-11 18:04:10:975
-1.9228,-10.8989,-0.8026,-1.0612,-9.6665,-1.2664,-1.0003,-1.0256,1.2551,0.8311,0.3103,1.3144,23.09,44.63,9.99,142.37,80.3,140.04,192003,2016-04-11 18:04:11:075
-1.3828,-8.8798,-2.3392,-1.2212,-9.7303,-0.0135,0.0515,0.98,-0.2192,1.1421,0.7804,-0.1708,28.59,43.69,5.83,193.67,82.85,90.63,192103,2016-04-11 18:04:11:175
-3.6739,-8.996,-2.0062,-1.3522,-9.6899,0.6693,-0.8288,0.5644,-1.003,1.3208,1.4689,0.1411,27.41,42.96,1.94,184.54,82.85,90.63,192204,2016-04-11 18:04:11:276
2.1443,-10.7063,-0.9794,-2.2634,-9.4051,1.6097,2.6101,-1.6654,-0.981,0.8675,0.0392,0.7631,31.01,41.09,-1.57,220.45,77.45,57.37,192303,2016-04-11 18:04:11:375
1.0157,-12.2358,-0.0178,-2.3722,-9.3277,1.8806,5.7501,-0.5272,-3.5688,0.4365,0.4615,0.0186,32.23,39.88,-2,235.29,72.02,51.6,192403,2016-04-11 18:04:11:475
-3.5301,-11.3764,0.1125,-1.262,-9.7102,0.5374,1.1774,-2.956,-3.2047,-2.4069,-0.7634,-1.2975,31.63,39.43,-0.75,205.75,81.96,66.93,192503,2016-04-11 18:04:11:575
-4.4165,-12.2592,0.8373,-0.5132,-9.7496,-0.9228,-3.5912,-2.4466,2.1555,-2.0975,1.3303,-1.1183,28.96,42.76,4.68,220.84,81.96,66.93,192603,2016-04-11 18:04:11:675
-2.0399,-5.8804,1.1602,1.2846,-9.4514,-2.2784,-1.0225,-2.3904,0.6545,-1.3751,-2.0845,-1.3993,17.43,44.49,17.98,104.25,80.15,-165.19,192704,2016-04-11 18:04:11:776
-3.3537,-2.8395,1.0646,1.3611,-9.2517,-2.9538,-4.0685,4.9643,4.2094,-0.214,-2.1313,-0.4112,18.2,44.71,19.82,81.68,74.53,-150.59,192804,2016-04-11 18:04:11:876
5.8083,-14.1749,-8.6148,0.671,-9.4519,-2.5261,1.1445,-2.2077,-5.2563,1.043,-0.8876,0.4977,16.88,46.09,15.82,85.65,74.54,-165.12,192903,2016-04-11 18:04:11:975
-4.7532,-13.5636,-1.7937,0.7872,-9.4693,-2.4255,3.7898,-2.7629,-3.4933,0.254,-0.8152,0.0905,19.02,46.7,14.38,79.21,74.54,-165.12,193003,2016-04-11 18:04:12:075
-2.6584,-10.0846,2.7535,-0.0372,-9.6461,-1.7667,-4.5371,2.2175,3.3867,0.1725,1.1809,0.9487,19.3,47.27,10.51,98.31,79.62,178.79,193103,2016-04-11 18:04:12:175
2.7014,-9.8968,2.2113,-1.3284,-9.7085,-0.3885,2.5863,-1.3344,1.3258,0.4732,-0.286,1.1642,25.53,45.24,8.87,134.73,80.93,143.38,193203,2016-04-11 18:04:12:275
-2.4873,-9.2715,0.1154,-1.286,-9.7024,0.6159,1.171,1.2296,0.7467,2.0862,-0.4121,-0.0548,27.12,42.62,6.88,230.44,81.64,64.41,193303,2016-04-11 18:04:12:375
-0.7587,-9.5623,0.1935,-1.5695,-9.6233,1.0482,-1.0028,0.2238,-1.2463,0.9095,1.8635,0.0636,27.42,44.25,1.27,230.56,78.9,56.26,193404,2016-04-11 18:04:12:476
4.7071,-9.2361,0.7428,-2.6638,-9.2645,1.8009,2.7968,-0.984,-1.3319,0.7435,0.5029,0.893,29.31,42.45,0.33,241.21,70.86,55.94,193503,2016-04-11 18:04:12:575
0.9997,-11.2217,-3.1489,-2.3407,-9.4148,1.4327,2.9034,-2.4821,-5.0043,-0.4316,0.1225,-0.5107,33.32,38.79,-2.16,222.21,73.75,58.53,193604,2016-04-11 18:04:12:676
-6.0454,-15.87,2.1927,-1.5269,-9.6865,0.1084,-0.993,-1.8841,-0.3407,-2.076,-0.3827,-1.2492,31.41,39.26,0.36,228.2,73.75,58.53,193703,2016-04-11 18:04:12:775
5.9417,-11.6481,-2.0462,0.4573,-9.5724,-2.0811,-0.6463,-2.7946,0.7945,-1.4359,0.943,-1.5617,25.19,43.83,11.95,82.91,77.45,-167.61,193803,2016-04-11 18:04:12:875
-3.3116,-3.3767,2.0361,1.2408,-9.2918,-2.8798,-2.9608,1.2786,2.4972,-1.1342,-1.38,-1.7428,20.04,45.47,17.07,95.52,77.45,-167.61,193903,2016-04-11 18:04:12:975
-3.686,-3.8604,-3.2207,0.5157,-9.2993,-3.0703,-4.7817,7.035,3.5704,0.6824,-1.4328,0.4296,17.16,44.96,18.37,76.21,68.73,-161.78,194003,2016-04-11 18:04:13:075
6.3986,-16.5787,-10.4335,0.4129,-9.3885,-2.8028,-0.782,0.445,-3.5092,0.4415,-0.5163,-0.1843,20.26,44.99,15.12,85.88,73.21,-171.62,194103,2016-04-11 18:04:13:175
-3.8212,-6.3073,1.8612,0.6213,-9.4342,-2.604,-7.2538,-3.2355,0.2564,0.3168,1.0825,0.6141,19.54,45.45,11.67,76.06,74.16,-166.58,194203,2016-04-11 18:04:13:275
-1.4891,-10.4325,-1.1523,-0.3294,-9.6256,-1.8466,-4.9357,2.0976,3.0801,1.4563,0.9604,1.8172,21.59,45.15,11.96,109.13,78.97,169.89,194303,2016-04-11 18:04:13:375
-0.1789,-8.7751,-2.7802,-1.5357,-9.6705,-0.5415,2.4963,0.8465,2.7632,1.9008,0.4588,0.1431,27.8,41.55,6.56,137.26,79.14,135.44,194403,2016-04-11 18:04:13:475
-3.1905,-9.0465,-1.9018,-1.5242,-9.6704,0.5748,-0.4456,0.7399,-0.1835,1.635,1.6835,-0.1278,27.73,41.44,3.39,215.21,80.44,69.34,194504,2016-04-11 18:04:13:576
0.7711,-10.4226,0.3487,-2.3655,-9.4201,1.3548,1.1998,-0.849,-0.6054,0.8635,0.1957,1.0191,29.38,41.29,-0.26,228.44,73.86,60.2,194603,2016-04-11 18:04:13:675
2.4674,-9.7319,1.3402,-2.9048,-9.2435,1.5133,5.3307,-0.8503,-1.5196,-0.1013,0.3164,0.0827,32.71,37.76,-2.21,223.16,70.84,60.36,194703,2016-04-11 18:04:13:775
-1.8916,-12.5762,-2.1921,-2.4743,-9.457,0.7837,3.0375,-1.9769,-3.3711,-1.9038,-0.0223,-1.2413,33.89,39.18,-1.87,220.58,70.49,62.48,194803,2016-04-11 18:04:13:875
-7.403,-15.095,1.047,-0.5051,-9.6058,-1.909,-5.8326,-5.5674,3.6999,-2.4936,-0.3155,-1.7672,29.25,40.93,2.08,155.22,80.43,112.76,194903,2016-04-11 18:04:13:975
-0.9758,-6.3297,0.9763,0.4836,-9.3724,-2.8451,-4.1548,-2.5116,3.0973,-1.7107,2.1686,-1.3051,27.04,43.68,8.91,105.11,78.38,165.18,195003,2016-04-11 18:04:14:075
-3.0088,-3.2437,1.9746,0.5071,-9.0124,-3.8327,-4.1444,5.894,5.106,-0.7325,-2.3251,-0.7789,16.83,44.21,18.95,83.85,66.78,-172.46,195103,2016-04-11 18:04:14:175
2.4646,-13.3166,-8.0021,0.1159,-9.13,-3.5776,-1.5902,0.3489,-1.4858,0.4666,-1.7436,0.0546,19.11,44.51,17.89,89.27,68.59,-178.14,195203,2016-04-11 18:04:14:275
0.4671,-12.4284,-2.2016,0.0711,-9.22,-3.3402,0.9052,-2.4736,0.8587,-0.0216,-0.4865,-0.1557,21.94,45.25,13.34,80.94,70.08,-178.78,195303,2016-04-11 18:04:14:375
-4.2731,-7.1677,5.7847,-0.0883,-9.3432,-2.9777,-8.0915,-2.467,0.1946,0.5899,0.8833,0.118,20.77,45.64,11.45,74.84,70.08,-178.78,195404,2016-04-11 18:04:14:476
2.391,-11.2488,0.5707,-1.5325,-9.5411,-1.6699,0.5075,-3.955,0.3701,1.3314,1.1042,1.6619,24.17,44.67,11.73,145.63,76.64,137.46,195504,2016-04-11 18:04:14:576
-2.0262,-9.886,1.1063,-1.6211,-9.6261,-0.9381,4.2829,1.1421,3.2301,0.6592,-1.026,0.3092,27.1,42.31,9.62,139.22,76.64,137.46,195604,2016-04-11 18:04:14:676
-1.6874,-9.0336,0.3887,-1.7868,-9.623,0.6131,-2.0476,-0.3784,-3.7991,1.3178,1.4088,0.159,28.28,43.1,0.4,207.17,78.89,71.06,195703,2016-04-11 18:04:14:775
3.9124,-9.9325,-0.5221,-2.3432,-9.4695,1.0038,0.9437,0.138,-0.0625,0.6546,0.5274,0.8581,28.28,42.26,-0.59,215.22,74.93,66.81,195805,2016-04-11 18:04:14:877
